File: Gamry/CV_Beaker_AgWires.DTA
EXPLAIN
TAG	CV
TITLE	LABEL	Cyclic Voltammetry	Test &Identifier
DATE	LABEL	6-12-2022	Date
TIME	LABEL	9:53:09	Time
NOTES	NOTES	1	&Notes...

PSTAT	PSTAT	REF3000-20110	Potentiostat
VINIT	POTEN	-5.00000E-001	F	Initial &E (V)
VLIMIT1	POTEN	5.00000E-001	F	Scan Limit &1 (V)
VLIMIT2	POTEN	-5.00000E-001	F	Scan Limit &2 (V)
VFINAL	POTEN	0.00000E+000	F	Final &E (V)
SCANRATE	QUANT	9.99998E+001	&Scan Rate (mV/s)
STEPSIZE	QUANT	2.00000E+000	St&ep Size (mV)
CYCLES	IQUANT	3	C&ycles (#)
IMODE	SELECTOR	0	I/E Range &Mode
IRANGE	QUANT	3.00000E-001	&Max Current (mA)
AREA	QUANT	1.00000E+000	Electrode &Area (cm^2)
ELECTRODETYPE	SELECTOR	0	Electrode Type
STRIPPING	TOGGLE	F	Used for Stripping
CONDIT	TWOPARAM	F	1.50000E+001	0.00000E+000	Conditionin&g	Time(s)	E(V)
DELAY	TWOPARAM	F	3.00000E+001	0.00000E+000	Init. De&lay	Time(s)	Stab.(mV/s)
EQDELAY	QUANT	0.00000E+000	Equil. &Time (s)
IRCOMP	SELECTOR	0	IRCom&p
PFCOR	QUANT	5.00000E+001	PF Corr. (ohm)
SAMPLINGMODE	SELECTOR	1	Sampling &Mode
EOC	QUANT	0	Open Circuit (V)
PSTATMODEL	IQUANT	5	Pstat Model
PSTATSECTION	LABEL	REF3000-20110	Pstat Section
PSTATSERIALNO	LABEL	20110	Pstat Serial Number
CTRLMODE	IQUANT	1	Control Mode
ELECTROMETER	IQUANT	0	RE=0 or CS=1
IESTAB	IQUANT	2	I/E Stability
CASPEED	IQUANT	4	Control Amp Speed
CONVENTION	IQUANT	1	Current Convention
ICHRANGE	IQUANT	2	Ich Range
ICHRANGEMODE	TOGGLE	F	Ich Auto Range
ICHOFFSETENABLE	TOGGLE	F	Ich Offset Enable
ICHOFFSET	QUANT	0	Ich Offset (V)
ICHFILTER	IQUANT	2	Ich Filter
VCHRANGE	IQUANT	2	Vch Range
VCHRANGEMODE	TOGGLE	F	Vch Auto Range
VCHOFFSETENABLE	TOGGLE	F	Vch Offset Enable
VCHOFFSET	QUANT	0	Vch Offset (V)
VCHFILTER	IQUANT	2	Vch Filter
ACHRANGE	IQUANT	2	Ach Range
ACHOFFSETENABLE	TOGGLE	F	Ach Offset Enable
ACHOFFSET	QUANT	0	Ach Offset (V)
ACHFILTER	IQUANT	1	Ach Filter
IERANGELOWERLIMIT	IQUANT	2	I/E Range Lower Limit
IERANGEMODE	TOGGLE	T	I/E AutoRange
IERANGE	IQUANT	9	I/E Range
POSFEEDENABLE	TOGGLE	F	Positive Feedback IR Comp
POSFEEDRESISTANCE	QUANT	0	Positive Feedback Resistance (ohm)
ACHSELECT	IQUANT	4	Ach Select
SENSECABLEID	IQUANT	14	Sense Cable ID
PWRCABLEID	IQUANT	7	Power Cable ID
DCCALDATE	LABEL	8/9/2022	DC Calibration Date
ACCALDATE	LABEL	8/9/2022	AC Calibration Date
THERMOSELECT	IQUANT	1	Thermo Select
FRAMEWORKVERSION	LABEL	7.9.0	Framework Version
INSTRUMENTVERSION	LABEL	4.60	Instrument Version
COMPLIANCEVOLTAGE	IQUANT	0	Compliance Voltage
CURVE1	TABLE
	Pt	T	Vf	Im	Vu	Sig	Ach	IERange	Over	Temp
	#	s	V vs. Ref.	A	V	V	V	#	bits	deg C
	0	0.02	-4.99430E-001	3.28722E-003	0.00000E+000	-5.00000E-001	7.02576E-004	9	....ih.....	-327.63
	2	0.06	-4.94567E-001	8.44810E-003	0.00000E+000	-4.96000E-001	7.01743E-004	10	...........	-327.63
	4	0.1	-4.90568E-001	8.57418E-003	0.00000E+000	-4.92000E-001	7.23410E-004	10	...........	-327.63
	6	0.14	-4.86577E-001	8.68626E-003	0.00000E+000	-4.88000E-001	7.15076E-004	10	...........	-327.63
	8	0.18	-4.82580E-001	8.77127E-003	0.00000E+000	-4.84000E-001	7.33410E-004	10	...........	-327.63
	10	0.22	-4.78578E-001	8.84548E-003	0.00000E+000	-4.80000E-001	7.13410E-004	10	...........	-327.63
	12	0.26	-4.74583E-001	8.90104E-003	0.00000E+000	-4.76000E-001	7.25076E-004	10	...........	-327.63
	14	0.3	-4.70619E-001	8.94017E-003	0.00000E+000	-4.72000E-001	6.95076E-004	10	...........	-327.63
	16	0.34	-4.66608E-001	8.96918E-003	0.00000E+000	-4.68000E-001	7.15910E-004	10	...........	-327.63
	18	0.38	-4.62611E-001	8.98258E-003	0.00000E+000	-4.64000E-001	6.93410E-004	10	...........	-327.63
	20	0.42	-4.58635E-001	8.98993E-003	0.00000E+000	-4.60000E-001	7.30076E-004	10	...........	-327.63
	22	0.46	-4.54627E-001	8.98405E-003	0.00000E+000	-4.56000E-001	7.20910E-004	10	...........	-327.63
	24	0.5	-4.50634E-001	8.96911E-003	0.00000E+000	-4.52000E-001	7.18410E-004	10	...........	-327.63
	26	0.54	-4.46659E-001	8.94569E-003	0.00000E+000	-4.48000E-001	7.11743E-004	10	...........	-327.63
	28	0.58	-4.42648E-001	8.91251E-003	0.00000E+000	-4.44000E-001	7.29243E-004	10	...........	-327.63
	30	0.62	-4.38654E-001	8.86722E-003	0.00000E+000	-4.40000E-001	7.05076E-004	10	...........	-327.63
	32	0.66	-4.34667E-001	8.82364E-003	0.00000E+000	-4.36000E-001	7.30076E-004	10	...........	-327.63
	34	0.7	-4.30659E-001	8.76304E-003	0.00000E+000	-4.32000E-001	7.03410E-004	10	...........	-327.63
	36	0.74	-4.26646E-001	8.70298E-003	0.00000E+000	-4.28000E-001	7.31743E-004	10	...........	-327.63
	38	0.78	-4.22660E-001	8.63211E-003	0.00000E+000	-4.24000E-001	7.10910E-004	10	...........	-327.63
	40	0.82	-4.18684E-001	8.55369E-003	0.00000E+000	-4.20000E-001	7.27576E-004	10	...........	-327.63
	42	0.86	-4.14654E-001	8.47054E-003	0.00000E+000	-4.16000E-001	7.13410E-004	10	...........	-327.63
	44	0.9	-4.10666E-001	8.38393E-003	0.00000E+000	-4.12000E-001	7.28410E-004	10	...........	-327.63
	46	0.94	-4.06687E-001	8.29470E-003	0.00000E+000	-4.08000E-001	7.11743E-004	10	...........	-327.63
	48	0.98	-4.02671E-001	8.20181E-003	0.00000E+000	-4.04000E-001	7.24243E-004	10	...........	-327.63
	50	1.02	-3.98687E-001	8.09821E-003	0.00000E+000	-4.00000E-001	6.97576E-004	10	...........	-327.63
	52	1.06	-3.94719E-001	8.00401E-003	0.00000E+000	-3.96000E-001	7.19243E-004	10	...........	-327.63
	54	1.1	-3.90712E-001	7.89715E-003	0.00000E+000	-3.92000E-001	7.14243E-004	10	...........	-327.63
	56	1.14	-3.86692E-001	7.79194E-003	0.00000E+000	-3.88000E-001	7.23410E-004	10	...........	-327.63
	58	1.18	-3.82707E-001	7.68635E-003	0.00000E+000	-3.84000E-001	7.18410E-004	10	...........	-327.63
	60	1.22	-3.78718E-001	7.56608E-003	0.00000E+000	-3.80000E-001	7.18410E-004	10	...........	-327.63
	62	1.26	-3.74715E-001	7.45644E-003	0.00000E+000	-3.76000E-001	7.19243E-004	10	...........	-327.63
	64	1.3	-3.70726E-001	7.33749E-003	0.00000E+000	-3.72000E-001	7.41743E-004	10	...........	-327.63
	66	1.34	-3.66729E-001	7.22329E-003	0.00000E+000	-3.68000E-001	7.17576E-004	10	...........	-327.63
	68	1.38	-3.62722E-001	7.10876E-003	0.00000E+000	-3.64000E-001	7.38410E-004	10	...........	-327.63
	70	1.42	-3.58720E-001	6.98570E-003	0.00000E+000	-3.60000E-001	7.10910E-004	10	...........	-327.63
	72	1.46	-3.54741E-001	6.87077E-003	0.00000E+000	-3.56000E-001	7.19243E-004	10	...........	-327.63
	74	1.5	-3.50734E-001	6.74729E-003	0.00000E+000	-3.52000E-001	7.35076E-004	10	...........	-327.63
	76	1.54	-3.46740E-001	6.62717E-003	0.00000E+000	-3.48000E-001	7.28410E-004	10	...........	-327.63
	78	1.58	-3.42749E-001	6.50526E-003	0.00000E+000	-3.44000E-001	6.95910E-004	10	...........	-327.63
	80	1.62	-3.38743E-001	6.37980E-003	0.00000E+000	-3.40000E-001	7.23410E-004	10	...........	-327.63
	82	1.66	-3.34742E-001	6.25591E-003	0.00000E+000	-3.36000E-001	6.84243E-004	10	...........	-327.63
	84	1.7	-3.30761E-001	6.12938E-003	0.00000E+000	-3.32000E-001	7.15076E-004	10	...........	-327.63
	86	1.74	-3.26757E-001	6.00437E-003	0.00000E+000	-3.28000E-001	7.02576E-004	10	...........	-327.63
	88	1.78	-3.22772E-001	5.88234E-003	0.00000E+000	-3.24000E-001	7.26743E-004	10	...........	-327.63
	90	1.82	-3.18782E-001	5.75589E-003	0.00000E+000	-3.20000E-001	7.02576E-004	10	...........	-327.63
	92	1.86	-3.14772E-001	5.63499E-003	0.00000E+000	-3.16000E-001	7.31743E-004	10	...........	-327.63
	94	1.9	-3.10769E-001	5.50837E-003	0.00000E+000	-3.12000E-001	7.12576E-004	10	...........	-327.63
	96	1.94	-3.06819E-001	5.38805E-003	0.00000E+000	-3.08000E-001	7.14243E-004	10	...........	-327.63
	98	1.98	-3.02809E-001	5.27091E-003	0.00000E+000	-3.04000E-001	6.95910E-004	10	...........	-327.63
	100	2.02	-2.98808E-001	5.14948E-003	0.00000E+000	-3.00000E-001	7.21743E-004	10	...........	-327.63
	102	2.06	-2.94821E-001	5.03510E-003	0.00000E+000	-2.96000E-001	6.90910E-004	10	...........	-327.63
	104	2.1	-2.90814E-001	4.92248E-003	0.00000E+000	-2.92000E-001	7.34243E-004	10	...........	-327.63
	106	2.14	-2.86821E-001	4.81013E-003	0.00000E+000	-2.88000E-001	7.04243E-004	10	...........	-327.63
	108	2.18	-2.82806E-001	4.69917E-003	0.00000E+000	-2.84000E-001	7.23410E-004	10	...........	-327.63
	110	2.22	-2.78824E-001	4.59154E-003	0.00000E+000	-2.80000E-001	7.06743E-004	10	...........	-327.63
	112	2.26	-2.74812E-001	4.48545E-003	0.00000E+000	-2.76000E-001	7.19243E-004	10	...........	-327.63
	114	2.3	-2.70816E-001	4.38629E-003	0.00000E+000	-2.72000E-001	7.02576E-004	10	...........	-327.63
	116	2.34	-2.66847E-001	4.28217E-003	0.00000E+000	-2.68000E-001	7.17576E-004	10	...........	-327.63
	118	2.38	-2.62841E-001	4.18683E-003	0.00000E+000	-2.64000E-001	6.95910E-004	10	...........	-327.63
	120	2.42	-2.58832E-001	4.09135E-003	0.00000E+000	-2.60000E-001	7.17576E-004	10	...........	-327.63
	122	2.46	-2.54865E-001	3.99755E-003	0.00000E+000	-2.56000E-001	6.85910E-004	10	...........	-327.63
	124	2.5	-2.50847E-001	3.91442E-003	0.00000E+000	-2.52000E-001	7.10910E-004	10	...........	-327.63
	126	2.54	-2.46844E-001	3.82570E-003	0.00000E+000	-2.48000E-001	6.93410E-004	10	...........	-327.63
	128	2.58	-2.42870E-001	3.74420E-003	0.00000E+000	-2.44000E-001	7.23410E-004	10	...........	-327.63
	130	2.62	-2.38871E-001	3.66640E-003	0.00000E+000	-2.40000E-001	6.94243E-004	10	...........	-327.63
	132	2.66	-2.34864E-001	3.58605E-003	0.00000E+000	-2.36000E-001	7.50076E-004	10	...........	-327.63
	134	2.7	-2.30856E-001	3.51595E-003	0.00000E+000	-2.32000E-001	7.03410E-004	10	...........	-327.63
	136	2.74	-2.26877E-001	3.43993E-003	0.00000E+000	-2.28000E-001	7.29243E-004	10	...........	-327.63
	138	2.78	-2.22882E-001	3.37570E-003	0.00000E+000	-2.24000E-001	7.01743E-004	10	...........	-327.63
	140	2.82	-2.18871E-001	3.30985E-003	0.00000E+000	-2.20000E-001	7.22576E-004	10	...........	-327.63
	142	2.86	-2.14892E-001	3.24550E-003	0.00000E+000	-2.16000E-001	6.82576E-004	10	...........	-327.63
	144	2.9	-2.10879E-001	3.19075E-003	0.00000E+000	-2.12000E-001	6.99243E-004	10	...........	-327.63
	146	2.94	-2.06897E-001	3.12996E-003	0.00000E+000	-2.08000E-001	6.98410E-004	10	...........	-327.63
	148	2.98	-2.02887E-001	3.07769E-003	0.00000E+000	-2.04000E-001	7.29243E-004	10	...........	-327.63
	150	3.02	-1.98902E-001	3.02404E-003	0.00000E+000	-2.00000E-001	6.94243E-004	10	...........	-327.63
	152	3.06	-1.94916E-001	2.97333E-003	0.00000E+000	-1.96000E-001	7.06743E-004	10	...........	-327.63
	154	3.1	-1.90933E-001	2.92932E-003	0.00000E+000	-1.92000E-001	6.95910E-004	10	...........	-327.63
	156	3.14	-1.86912E-001	2.88088E-003	0.00000E+000	-1.88000E-001	7.33410E-004	10	...........	-327.63
	158	3.18	-1.82917E-001	2.84071E-003	0.00000E+000	-1.84000E-001	7.25076E-004	10	...........	-327.63
	160	3.22	-1.78927E-001	2.79935E-003	0.00000E+000	-1.80000E-001	7.15910E-004	10	...........	-327.63
	162	3.26	-1.74931E-001	2.75864E-003	0.00000E+000	-1.76000E-001	7.23410E-004	10	...........	-327.63
	164	3.3	-1.70936E-001	2.72280E-003	0.00000E+000	-1.72000E-001	7.20076E-004	10	...........	-327.63
	166	3.34	-1.66949E-001	2.68820E-003	0.00000E+000	-1.68000E-001	6.88410E-004	10	...........	-327.63
	168	3.38	-1.62931E-001	2.65402E-003	0.00000E+000	-1.64000E-001	7.10910E-004	10	...........	-327.63
	170	3.42	-1.58958E-001	2.62095E-003	0.00000E+000	-1.60000E-001	7.10076E-004	10	...........	-327.63
	172	3.46	-1.54953E-001	2.59147E-003	0.00000E+000	-1.56000E-001	7.24243E-004	10	...........	-327.63
	174	3.5	-1.50966E-001	2.56436E-003	0.00000E+000	-1.52000E-001	7.13410E-004	10	...........	-327.63
	176	3.54	-1.46982E-001	2.53696E-003	0.00000E+000	-1.48000E-001	7.16743E-004	10	...........	-327.63
	178	3.58	-1.42981E-001	2.51087E-003	0.00000E+000	-1.44000E-001	7.03410E-004	10	...........	-327.63
	180	3.62	-1.38985E-001	2.48623E-003	0.00000E+000	-1.40000E-001	7.08410E-004	10	...........	-327.63
	182	3.66	-1.34989E-001	2.46238E-003	0.00000E+000	-1.36000E-001	6.92576E-004	10	...........	-327.63
	184	3.7	-1.30979E-001	2.44087E-003	0.00000E+000	-1.32000E-001	7.11743E-004	10	...........	-327.63
	186	3.74	-1.27373E-001	2.42217E-003	0.00000E+000	-1.28000E-001	7.21743E-004	9	...........	-327.63
	188	3.78	-1.23367E-001	2.39907E-003	0.00000E+000	-1.24000E-001	7.29243E-004	9	...........	-327.63
	190	3.82	-1.19367E-001	2.38050E-003	0.00000E+000	-1.20000E-001	7.25076E-004	9	...........	-327.63
	192	3.86	-1.15369E-001	2.36365E-003	0.00000E+000	-1.16000E-001	6.91743E-004	9	...........	-327.63
	194	3.9	-1.11381E-001	2.34631E-003	0.00000E+000	-1.12000E-001	7.17576E-004	9	...........	-327.63
	196	3.94	-1.07381E-001	2.33216E-003	0.00000E+000	-1.08000E-001	7.16743E-004	9	...........	-327.63
	198	3.98	-1.03383E-001	2.31541E-003	0.00000E+000	-1.04000E-001	7.42576E-004	9	...........	-327.63
	200	4.02	-9.94098E-002	2.30238E-003	0.00000E+000	-1.00000E-001	7.11743E-004	9	...........	-327.63
	202	4.06	-9.54078E-002	2.28960E-003	0.00000E+000	-9.60000E-002	7.35076E-004	9	...........	-327.63
	204	4.1	-9.14061E-002	2.27569E-003	0.00000E+000	-9.20000E-002	7.04243E-004	9	...........	-327.63
	206	4.14	-8.74361E-002	2.26465E-003	0.00000E+000	-8.80000E-002	7.20076E-004	9	...........	-327.63
	208	4.18	-8.34098E-002	2.25243E-003	0.00000E+000	-8.40000E-002	7.08410E-004	9	...........	-327.63
	210	4.22	-7.94149E-002	2.24212E-003	0.00000E+000	-8.00000E-002	7.30076E-004	9	...........	-327.63
	212	4.26	-7.54411E-002	2.23079E-003	0.00000E+000	-7.60000E-002	7.26743E-004	9	...........	-327.63
	214	4.3	-7.14228E-002	2.21875E-003	0.00000E+000	-7.20000E-002	7.36743E-004	9	...........	-327.63
	216	4.34	-6.74332E-002	2.20943E-003	0.00000E+000	-6.80000E-002	6.98410E-004	9	...........	-327.63
	218	4.38	-6.34607E-002	2.19831E-003	0.00000E+000	-6.40000E-002	7.32576E-004	9	...........	-327.63
	220	4.42	-5.94536E-002	2.19157E-003	0.00000E+000	-6.00000E-002	7.10910E-004	9	...........	-327.63
	222	4.46	-5.54348E-002	2.18092E-003	0.00000E+000	-5.60000E-002	7.55076E-004	9	...........	-327.63
	224	4.5	-5.14403E-002	2.17286E-003	0.00000E+000	-5.20000E-002	6.98410E-004	9	...........	-327.63
	226	4.54	-4.74557E-002	2.16660E-003	0.00000E+000	-4.80000E-002	7.24243E-004	9	...........	-327.63
	228	4.58	-4.34598E-002	2.15892E-003	0.00000E+000	-4.40000E-002	7.20910E-004	9	...........	-327.63
	230	4.62	-3.94657E-002	2.15297E-003	0.00000E+000	-4.00000E-002	7.32576E-004	9	...........	-327.63
	232	4.66	-3.54949E-002	2.14627E-003	0.00000E+000	-3.60000E-002	6.83410E-004	9	...........	-327.63
	234	4.7	-3.14844E-002	2.13718E-003	0.00000E+000	-3.20000E-002	7.27576E-004	9	...........	-327.63
	236	4.74	-2.74794E-002	2.13288E-003	0.00000E+000	-2.80000E-002	6.99243E-004	9	...........	-327.63
	238	4.78	-2.34932E-002	2.12463E-003	0.00000E+000	-2.40000E-002	7.35076E-004	9	...........	-327.63
	240	4.82	-1.94890E-002	2.12147E-003	0.00000E+000	-2.00000E-002	7.22576E-004	9	...........	-327.63
	242	4.86	-1.54949E-002	2.11539E-003	0.00000E+000	-1.60000E-002	7.13410E-004	9	...........	-327.63
	244	4.9	-1.15107E-002	2.10830E-003	0.00000E+000	-1.20000E-002	7.03410E-004	9	...........	-327.63
	246	4.94	-7.51735E-003	2.10734E-003	0.00000E+000	-8.00000E-003	7.39243E-004	9	...........	-327.63
	248	4.98	-3.50444E-003	2.09920E-003	0.00000E+000	-4.00000E-003	7.17576E-004	9	...........	-327.63
	250	5.02	4.88897E-004	2.09722E-003	0.00000E+000	0.00000E+000	7.24243E-004	9	...........	-327.63
	252	5.06	4.50306E-003	2.09185E-003	0.00000E+000	4.00000E-003	6.95076E-004	9	...........	-327.63
	254	5.1	8.50306E-003	2.08853E-003	0.00000E+000	8.00000E-003	7.14243E-004	9	...........	-327.63
	256	5.14	1.24972E-002	2.08574E-003	0.00000E+000	1.20000E-002	6.94243E-004	9	...........	-327.63
	258	5.18	1.64931E-002	2.07928E-003	0.00000E+000	1.60000E-002	7.20910E-004	9	...........	-327.63
	260	5.22	2.04793E-002	2.07733E-003	0.00000E+000	2.00000E-002	7.15910E-004	9	...........	-327.63
	262	5.26	2.44889E-002	2.07392E-003	0.00000E+000	2.40000E-002	7.27576E-004	9	...........	-327.63
	264	5.3	2.84731E-002	2.06826E-003	0.00000E+000	2.80000E-002	7.06743E-004	9	...........	-327.63
	266	5.34	3.24685E-002	2.06673E-003	0.00000E+000	3.20000E-002	7.30076E-004	9	...........	-327.63
	268	5.38	3.64726E-002	2.06138E-003	0.00000E+000	3.60000E-002	7.30910E-004	9	...........	-327.63
	270	5.42	4.04501E-002	2.05824E-003	0.00000E+000	4.00000E-002	7.07576E-004	9	...........	-327.63
	272	5.46	4.44597E-002	2.05886E-003	0.00000E+000	4.40000E-002	7.01743E-004	9	...........	-327.63
	274	5.5	4.84576E-002	2.05422E-003	0.00000E+000	4.80000E-002	7.26743E-004	9	...........	-327.63
	276	5.54	5.24526E-002	2.05108E-003	0.00000E+000	5.20000E-002	7.13410E-004	9	...........	-327.63
	278	5.58	5.64451E-002	2.04766E-003	0.00000E+000	5.60000E-002	7.26743E-004	9	...........	-327.63
	280	5.62	6.04447E-002	2.04509E-003	0.00000E+000	6.00000E-002	7.16743E-004	9	...........	-327.63
	282	5.66	6.44251E-002	2.04434E-003	0.00000E+000	6.40000E-002	7.27576E-004	9	...........	-327.63
	284	5.7	6.84214E-002	2.04321E-003	0.00000E+000	6.80000E-002	7.15076E-004	9	...........	-327.63
	286	5.74	7.24347E-002	2.03996E-003	0.00000E+000	7.20000E-002	7.23410E-004	9	...........	-327.63
	288	5.78	7.64181E-002	2.03688E-003	0.00000E+000	7.60000E-002	7.06743E-004	9	...........	-327.63
	290	5.82	8.04051E-002	2.03520E-003	0.00000E+000	8.00000E-002	7.33410E-004	9	...........	-327.63
	292	5.86	8.44152E-002	2.03420E-003	0.00000E+000	8.40000E-002	7.31743E-004	9	...........	-327.63
	294	5.9	8.84006E-002	2.03173E-003	0.00000E+000	8.80000E-002	7.34243E-004	9	...........	-327.63
	296	5.94	9.23735E-002	2.03113E-003	0.00000E+000	9.20000E-002	6.98410E-004	9	...........	-327.63
	298	5.98	9.63789E-002	2.02946E-003	0.00000E+000	9.60000E-002	7.38410E-004	9	...........	-327.63
	300	6.02	1.00392E-001	2.02829E-003	0.00000E+000	1.00000E-001	7.09243E-004	9	...........	-327.63
	302	6.06	1.04381E-001	2.02724E-003	0.00000E+000	1.04000E-001	7.30076E-004	9	...........	-327.63
	304	6.1	1.08368E-001	2.02519E-003	0.00000E+000	1.08000E-001	7.02576E-004	9	...........	-327.63
	306	6.14	1.12356E-001	2.02583E-003	0.00000E+000	1.12000E-001	7.37576E-004	9	...........	-327.63
	308	6.18	1.16336E-001	2.02443E-003	0.00000E+000	1.16000E-001	6.85910E-004	9	...........	-327.63
	310	6.22	1.20336E-001	2.02391E-003	0.00000E+000	1.20000E-001	7.36743E-004	9	...........	-327.63
	312	6.26	1.24336E-001	2.02474E-003	0.00000E+000	1.24000E-001	7.05910E-004	9	...........	-327.63
	314	6.3	1.28319E-001	2.02327E-003	0.00000E+000	1.28000E-001	7.10076E-004	9	...........	-327.63
	316	6.34	1.32328E-001	2.02094E-003	0.00000E+000	1.32000E-001	7.00076E-004	9	...........	-327.63
	318	6.38	1.36337E-001	2.02158E-003	0.00000E+000	1.36000E-001	7.15910E-004	9	...........	-327.63
	320	6.42	1.40328E-001	2.02181E-003	0.00000E+000	1.40000E-001	7.01743E-004	9	...........	-327.63
	322	6.46	1.44294E-001	2.02082E-003	0.00000E+000	1.44000E-001	7.22576E-004	9	...........	-327.63
	324	6.5	1.48308E-001	2.01986E-003	0.00000E+000	1.48000E-001	7.03410E-004	9	...........	-327.63
	326	6.54	1.52312E-001	2.02115E-003	0.00000E+000	1.52000E-001	7.25910E-004	9	...........	-327.63
	328	6.58	1.56286E-001	2.01851E-003	0.00000E+000	1.56000E-001	6.93410E-004	9	...........	-327.63
	330	6.62	1.60290E-001	2.01832E-003	0.00000E+000	1.60000E-001	7.15076E-004	9	...........	-327.63
	332	6.66	1.64286E-001	2.01982E-003	0.00000E+000	1.64000E-001	7.05076E-004	9	...........	-327.63
	334	6.7	1.68269E-001	2.01969E-003	0.00000E+000	1.68000E-001	7.10910E-004	9	...........	-327.63
	336	6.74	1.72288E-001	2.02049E-003	0.00000E+000	1.72000E-001	7.03410E-004	9	...........	-327.63
	338	6.78	1.76277E-001	2.02032E-003	0.00000E+000	1.76000E-001	7.19243E-004	9	...........	-327.63
	340	6.82	1.80236E-001	2.01944E-003	0.00000E+000	1.80000E-001	7.06743E-004	9	...........	-327.63
	342	6.86	1.84255E-001	2.01934E-003	0.00000E+000	1.84000E-001	7.19243E-004	9	...........	-327.63
	344	6.9	1.88257E-001	2.02142E-003	0.00000E+000	1.88000E-001	6.95910E-004	9	...........	-327.63
	346	6.94	1.92236E-001	2.02093E-003	0.00000E+000	1.92000E-001	7.20076E-004	9	...........	-327.63
	348	6.98	1.96232E-001	2.02217E-003	0.00000E+000	1.96000E-001	7.05910E-004	9	...........	-327.63
	350	7.02	2.00237E-001	2.02310E-003	0.00000E+000	2.00000E-001	7.22576E-004	9	...........	-327.63
	352	7.06	2.04220E-001	2.02182E-003	0.00000E+000	2.04000E-001	7.08410E-004	9	...........	-327.63
	354	7.1	2.08208E-001	2.02334E-003	0.00000E+000	2.08000E-001	7.32576E-004	9	...........	-327.63
	356	7.14	2.12228E-001	2.02440E-003	0.00000E+000	2.12000E-001	7.07576E-004	9	...........	-327.63
	358	7.18	2.16211E-001	2.02316E-003	0.00000E+000	2.16000E-001	7.29243E-004	9	...........	-327.63
	360	7.22	2.20211E-001	2.02467E-003	0.00000E+000	2.20000E-001	7.09243E-004	9	...........	-327.63
	362	7.26	2.24208E-001	2.02514E-003	0.00000E+000	2.24000E-001	7.34243E-004	9	...........	-327.63
	364	7.3	2.28197E-001	2.02712E-003	0.00000E+000	2.28000E-001	7.22576E-004	9	...........	-327.63
	366	7.34	2.32205E-001	2.02615E-003	0.00000E+000	2.32000E-001	7.46743E-004	9	...........	-327.63
	368	7.38	2.36187E-001	2.02647E-003	0.00000E+000	2.36000E-001	7.03410E-004	9	...........	-327.63
	370	7.42	2.40198E-001	2.02933E-003	0.00000E+000	2.40000E-001	7.15910E-004	9	...........	-327.63
	372	7.46	2.44161E-001	2.02920E-003	0.00000E+000	2.44000E-001	6.85076E-004	9	...........	-327.63
	374	7.5	2.48186E-001	2.03158E-003	0.00000E+000	2.48000E-001	7.31743E-004	9	...........	-327.63
	376	7.54	2.52157E-001	2.03159E-003	0.00000E+000	2.52000E-001	7.19243E-004	9	...........	-327.63
	378	7.58	2.56160E-001	2.03259E-003	0.00000E+000	2.56000E-001	7.22576E-004	9	...........	-327.63
	380	7.62	2.60148E-001	2.03544E-003	0.00000E+000	2.60000E-001	7.23410E-004	9	...........	-327.63
	382	7.66	2.64154E-001	2.03553E-003	0.00000E+000	2.64000E-001	7.22576E-004	9	...........	-327.63
	384	7.7	2.68141E-001	2.03941E-003	0.00000E+000	2.68000E-001	7.08410E-004	9	...........	-327.63
	386	7.74	2.72146E-001	2.03885E-003	0.00000E+000	2.72000E-001	7.03410E-004	9	...........	-327.63
	388	7.78	2.76140E-001	2.04061E-003	0.00000E+000	2.76000E-001	7.13410E-004	9	...........	-327.63
	390	7.82	2.80135E-001	2.04307E-003	0.00000E+000	2.80000E-001	6.91743E-004	9	...........	-327.63
	392	7.86	2.84118E-001	2.04294E-003	0.00000E+000	2.84000E-001	7.14243E-004	9	...........	-327.63
	394	7.9	2.88125E-001	2.04611E-003	0.00000E+000	2.88000E-001	7.02576E-004	9	...........	-327.63
	396	7.94	2.92104E-001	2.04609E-003	0.00000E+000	2.92000E-001	7.05076E-004	9	...........	-327.63
	398	7.98	2.96105E-001	2.04687E-003	0.00000E+000	2.96000E-001	7.00076E-004	9	...........	-327.63
	400	8.02	3.00088E-001	2.05066E-003	0.00000E+000	3.00000E-001	7.17576E-004	9	...........	-327.63
	402	8.06	3.04100E-001	2.05515E-003	0.00000E+000	3.04000E-001	7.05910E-004	9	...........	-327.63
	404	8.1	3.08055E-001	2.05245E-003	0.00000E+000	3.08000E-001	7.40076E-004	9	...........	-327.63
	406	8.14	3.12057E-001	2.05970E-003	0.00000E+000	3.12000E-001	7.10076E-004	9	...........	-327.63
	408	8.18	3.16056E-001	2.05512E-003	0.00000E+000	3.16000E-001	7.16743E-004	9	...........	-327.63
	410	8.22	3.20034E-001	2.05706E-003	0.00000E+000	3.20000E-001	7.10910E-004	9	...........	-327.63
	412	8.26	3.24016E-001	2.05842E-003	0.00000E+000	3.24000E-001	7.15910E-004	9	...........	-327.63
	414	8.3	3.28042E-001	2.06000E-003	0.00000E+000	3.28000E-001	7.21743E-004	9	...........	-327.63
	416	8.34	3.32042E-001	2.06063E-003	0.00000E+000	3.32000E-001	7.34243E-004	9	...........	-327.63
	418	8.38	3.36032E-001	2.06233E-003	0.00000E+000	3.36000E-001	7.14243E-004	9	...........	-327.63
	420	8.42	3.40033E-001	2.06547E-003	0.00000E+000	3.40000E-001	7.05076E-004	9	...........	-327.63
	422	8.46	3.44021E-001	2.06611E-003	0.00000E+000	3.44000E-001	7.19243E-004	9	...........	-327.63
	424	8.5	3.47997E-001	2.06967E-003	0.00000E+000	3.48000E-001	7.12576E-004	9	...........	-327.63
	426	8.54	3.51979E-001	2.07088E-003	0.00000E+000	3.52000E-001	7.15076E-004	9	...........	-327.63
	428	8.58	3.56013E-001	2.07206E-003	0.00000E+000	3.56000E-001	7.31743E-004	9	...........	-327.63
	430	8.62	3.59983E-001	2.07534E-003	0.00000E+000	3.60000E-001	7.16743E-004	9	...........	-327.63
	432	8.66	3.63976E-001	2.08017E-003	0.00000E+000	3.64000E-001	7.20910E-004	9	...........	-327.63
	434	8.7	3.67978E-001	2.07967E-003	0.00000E+000	3.68000E-001	7.32576E-004	9	...........	-327.63
	436	8.74	3.71945E-001	2.08075E-003	0.00000E+000	3.72000E-001	7.28410E-004	9	...........	-327.63
	438	8.78	3.75956E-001	2.08195E-003	0.00000E+000	3.76000E-001	6.99243E-004	9	...........	-327.63
	440	8.82	3.79957E-001	2.08593E-003	0.00000E+000	3.80000E-001	7.36743E-004	9	...........	-327.63
	442	8.86	3.83951E-001	2.08547E-003	0.00000E+000	3.84000E-001	7.15910E-004	9	...........	-327.63
	444	8.9	3.87940E-001	2.08758E-003	0.00000E+000	3.88000E-001	7.23410E-004	9	...........	-327.63
	446	8.94	3.91945E-001	2.09200E-003	0.00000E+000	3.92000E-001	7.27576E-004	9	...........	-327.63
	448	8.98	3.95940E-001	2.09378E-003	0.00000E+000	3.96000E-001	7.20910E-004	9	...........	-327.63
	450	9.02	3.99924E-001	2.09671E-003	0.00000E+000	4.00000E-001	6.88410E-004	9	...........	-327.63
	452	9.06	4.03927E-001	2.09746E-003	0.00000E+000	4.04000E-001	7.20910E-004	9	...........	-327.63
	454	9.1	4.07917E-001	2.09917E-003	0.00000E+000	4.08000E-001	7.15076E-004	9	...........	-327.63
	456	9.14	4.11895E-001	2.10380E-003	0.00000E+000	4.12000E-001	7.23410E-004	9	...........	-327.63
	458	9.18	4.15886E-001	2.10401E-003	0.00000E+000	4.16000E-001	7.09243E-004	9	...........	-327.63
	460	9.22	4.19905E-001	2.10507E-003	0.00000E+000	4.20000E-001	7.10076E-004	9	...........	-327.63
	462	9.26	4.23869E-001	2.10802E-003	0.00000E+000	4.24000E-001	7.13410E-004	9	...........	-327.63
	464	9.3	4.27863E-001	2.10984E-003	0.00000E+000	4.28000E-001	7.33410E-004	9	...........	-327.63
	466	9.34	4.31868E-001	2.11287E-003	0.00000E+000	4.32000E-001	7.35076E-004	9	...........	-327.63
	468	9.38	4.35836E-001	2.11662E-003	0.00000E+000	4.36000E-001	7.24243E-004	9	...........	-327.63
	470	9.42	4.39853E-001	2.11845E-003	0.00000E+000	4.40000E-001	7.04243E-004	9	...........	-327.63
	472	9.46	4.43853E-001	2.12417E-003	0.00000E+000	4.44000E-001	7.31743E-004	9	...........	-327.63
	474	9.5	4.47851E-001	2.12511E-003	0.00000E+000	4.48000E-001	7.14243E-004	9	...........	-327.63
	476	9.54	4.51839E-001	2.12814E-003	0.00000E+000	4.52000E-001	7.23410E-004	9	...........	-327.63
	478	9.58	4.55838E-001	2.12964E-003	0.00000E+000	4.56000E-001	7.22576E-004	9	...........	-327.63
	480	9.62	4.59832E-001	2.13295E-003	0.00000E+000	4.60000E-001	7.27576E-004	9	...........	-327.63
	482	9.66	4.63810E-001	2.13458E-003	0.00000E+000	4.64000E-001	7.26743E-004	9	...........	-327.63
	484	9.7	4.67821E-001	2.13447E-003	0.00000E+000	4.68000E-001	7.31743E-004	9	...........	-327.63
	486	9.74	4.71814E-001	2.13569E-003	0.00000E+000	4.72000E-001	7.18410E-004	9	...........	-327.63
	488	9.78	4.75788E-001	2.14066E-003	0.00000E+000	4.76000E-001	7.10076E-004	9	...........	-327.63
	490	9.82	4.79784E-001	2.14220E-003	0.00000E+000	4.80000E-001	7.09243E-004	9	...........	-327.63
	492	9.86	4.83792E-001	2.14562E-003	0.00000E+000	4.84000E-001	7.25910E-004	9	...........	-327.63
	494	9.9	4.87785E-001	2.14761E-003	0.00000E+000	4.88000E-001	7.13410E-004	9	...........	-327.63
	496	9.94	4.91772E-001	2.14888E-003	0.00000E+000	4.92000E-001	7.19243E-004	9	...........	-327.63
	498	9.98	4.95764E-001	2.15224E-003	0.00000E+000	4.96000E-001	7.22576E-004	9	...........	-327.63
	500	10.02	4.99746E-001	2.15540E-003	0.00000E+000	5.00000E-001	7.32576E-004	9	...........	-327.63
	502	10.06	4.95774E-001	2.14711E-003	0.00000E+000	4.96000E-001	7.07576E-004	9	...........	-327.63
	504	10.1	4.91776E-001	2.13883E-003	0.00000E+000	4.92000E-001	7.25910E-004	9	...........	-327.63
	506	10.14	4.87785E-001	2.13015E-003	0.00000E+000	4.88000E-001	7.18410E-004	9	...........	-327.63
	508	10.18	4.83798E-001	2.12488E-003	0.00000E+000	4.84000E-001	7.23410E-004	9	...........	-327.63
	510	10.22	4.79788E-001	2.11528E-003	0.00000E+000	4.80000E-001	7.08410E-004	9	...........	-327.63
	512	10.26	4.75776E-001	2.10916E-003	0.00000E+000	4.76000E-001	7.02576E-004	9	...........	-327.63
	514	10.3	4.71819E-001	2.10014E-003	0.00000E+000	4.72000E-001	7.10076E-004	9	...........	-327.63
	516	10.34	4.67817E-001	2.09434E-003	0.00000E+000	4.68000E-001	7.28410E-004	9	...........	-327.63
	518	10.38	4.63809E-001	2.08770E-003	0.00000E+000	4.64000E-001	7.19243E-004	9	...........	-327.63
	520	10.42	4.59853E-001	2.07986E-003	0.00000E+000	4.60000E-001	7.28410E-004	9	...........	-327.63
	522	10.46	4.55837E-001	2.07687E-003	0.00000E+000	4.56000E-001	7.20910E-004	9	...........	-327.63
	524	10.5	4.51848E-001	2.06730E-003	0.00000E+000	4.52000E-001	7.20076E-004	9	...........	-327.63
	526	10.54	4.47851E-001	2.06004E-003	0.00000E+000	4.48000E-001	7.22576E-004	9	...........	-327.63
	528	10.58	4.43855E-001	2.05633E-003	0.00000E+000	4.44000E-001	7.39243E-004	9	...........	-327.63
	530	10.62	4.39879E-001	2.04841E-003	0.00000E+000	4.40000E-001	7.25076E-004	9	...........	-327.63
	532	10.66	4.35862E-001	2.04248E-003	0.00000E+000	4.36000E-001	7.23410E-004	9	...........	-327.63
	534	10.7	4.31866E-001	2.03490E-003	0.00000E+000	4.32000E-001	7.19243E-004	9	...........	-327.63
	536	10.74	4.27864E-001	2.03024E-003	0.00000E+000	4.28000E-001	7.40076E-004	9	...........	-327.63
	538	10.78	4.23873E-001	2.02441E-003	0.00000E+000	4.24000E-001	7.09243E-004	9	...........	-327.63
	540	10.82	4.19911E-001	2.01862E-003	0.00000E+000	4.20000E-001	7.16743E-004	9	...........	-327.63
	542	10.86	4.15893E-001	2.01360E-003	0.00000E+000	4.16000E-001	7.19243E-004	9	...........	-327.63
	544	10.9	4.11902E-001	2.00679E-003	0.00000E+000	4.12000E-001	7.19243E-004	9	...........	-327.63
	546	10.94	4.07933E-001	1.99972E-003	0.00000E+000	4.08000E-001	7.15910E-004	9	...........	-327.63
	548	10.98	4.03940E-001	1.99471E-003	0.00000E+000	4.04000E-001	7.20076E-004	9	...........	-327.63
	550	11.02	3.99938E-001	1.98861E-003	0.00000E+000	4.00000E-001	7.01743E-004	9	...........	-327.63
	552	11.06	3.95964E-001	1.98330E-003	0.00000E+000	3.96000E-001	7.22576E-004	9	...........	-327.63
	554	11.1	3.91951E-001	1.97860E-003	0.00000E+000	3.92000E-001	7.09243E-004	9	...........	-327.63
	556	11.14	3.87968E-001	1.97386E-003	0.00000E+000	3.88000E-001	7.45076E-004	9	...........	-327.63
	558	11.18	3.83964E-001	1.96791E-003	0.00000E+000	3.84000E-001	7.13410E-004	9	...........	-327.63
	560	11.22	3.79983E-001	1.96109E-003	0.00000E+000	3.80000E-001	7.04243E-004	9	...........	-327.63
	562	11.26	3.75987E-001	1.95602E-003	0.00000E+000	3.76000E-001	7.04243E-004	9	...........	-327.63
	564	11.3	3.71972E-001	1.95046E-003	0.00000E+000	3.72000E-001	7.15076E-004	9	...........	-327.63
	566	11.34	3.68000E-001	1.94446E-003	0.00000E+000	3.68000E-001	7.22576E-004	9	...........	-327.63
	568	11.38	3.63994E-001	1.94048E-003	0.00000E+000	3.64000E-001	7.25076E-004	9	...........	-327.63
	570	11.42	3.60012E-001	1.93423E-003	0.00000E+000	3.60000E-001	7.17576E-004	9	...........	-327.63
	572	11.46	3.56003E-001	1.92953E-003	0.00000E+000	3.56000E-001	7.38410E-004	9	...........	-327.63
	574	11.5	3.52038E-001	1.92440E-003	0.00000E+000	3.52000E-001	7.24243E-004	9	...........	-327.63
	576	11.54	3.48027E-001	1.91967E-003	0.00000E+000	3.48000E-001	7.13410E-004	9	...........	-327.63
	578	11.58	3.44053E-001	1.91607E-003	0.00000E+000	3.44000E-001	7.18410E-004	9	...........	-327.63
	580	11.62	3.40049E-001	1.91114E-003	0.00000E+000	3.40000E-001	7.06743E-004	9	...........	-327.63
	582	11.66	3.36051E-001	1.90480E-003	0.00000E+000	3.36000E-001	7.28410E-004	9	...........	-327.63
	584	11.7	3.32068E-001	1.90067E-003	0.00000E+000	3.32000E-001	7.16743E-004	9	...........	-327.63
	586	11.74	3.28068E-001	1.89580E-003	0.00000E+000	3.28000E-001	7.21743E-004	9	...........	-327.63
	588	11.78	3.24071E-001	1.89073E-003	0.00000E+000	3.24000E-001	7.24243E-004	9	...........	-327.63
	590	11.82	3.20079E-001	1.88539E-003	0.00000E+000	3.20000E-001	6.95076E-004	9	...........	-327.63
	592	11.86	3.16076E-001	1.88078E-003	0.00000E+000	3.16000E-001	7.19243E-004	9	...........	-327.63
	594	11.9	3.12080E-001	1.87580E-003	0.00000E+000	3.12000E-001	7.10910E-004	9	...........	-327.63
	596	11.94	3.08078E-001	1.86975E-003	0.00000E+000	3.08000E-001	7.24243E-004	9	...........	-327.63
	598	11.98	3.04116E-001	1.86634E-003	0.00000E+000	3.04000E-001	7.23410E-004	9	...........	-327.63
	600	12.02	3.00107E-001	1.86213E-003	0.00000E+000	3.00000E-001	6.95910E-004	9	...........	-327.63
	602	12.06	2.96124E-001	1.85614E-003	0.00000E+000	2.96000E-001	7.02576E-004	9	...........	-327.63
	604	12.1	2.92136E-001	1.85176E-003	0.00000E+000	2.92000E-001	7.02576E-004	9	...........	-327.63
	606	12.14	2.88155E-001	1.84724E-003	0.00000E+000	2.88000E-001	7.25076E-004	9	...........	-327.63
	608	12.18	2.84146E-001	1.84172E-003	0.00000E+000	2.84000E-001	7.12576E-004	9	...........	-327.63
	610	12.22	2.80167E-001	1.83835E-003	0.00000E+000	2.80000E-001	7.43410E-004	9	...........	-327.63
	612	12.26	2.76152E-001	1.83325E-003	0.00000E+000	2.76000E-001	7.05910E-004	9	...........	-327.63
	614	12.3	2.72174E-001	1.83056E-003	0.00000E+000	2.72000E-001	7.31743E-004	9	...........	-327.63
	616	12.34	2.68168E-001	1.82392E-003	0.00000E+000	2.68000E-001	6.85076E-004	9	...........	-327.63
	618	12.38	2.64182E-001	1.81958E-003	0.00000E+000	2.64000E-001	7.15910E-004	9	...........	-327.63
	620	12.42	2.60173E-001	1.81559E-003	0.00000E+000	2.60000E-001	6.96743E-004	9	...........	-327.63
	622	12.46	2.56194E-001	1.80973E-003	0.00000E+000	2.56000E-001	7.10910E-004	9	...........	-327.63
	624	12.5	2.52198E-001	1.80645E-003	0.00000E+000	2.52000E-001	7.14243E-004	9	...........	-327.63
	626	12.54	2.48207E-001	1.80011E-003	0.00000E+000	2.48000E-001	7.44243E-004	9	...........	-327.63
	628	12.58	2.44185E-001	1.79546E-003	0.00000E+000	2.44000E-001	6.85910E-004	9	...........	-327.63
	630	12.62	2.40218E-001	1.79261E-003	0.00000E+000	2.40000E-001	7.11743E-004	9	...........	-327.63
	632	12.66	2.36219E-001	1.78707E-003	0.00000E+000	2.36000E-001	6.95910E-004	9	...........	-327.63
	634	12.7	2.32225E-001	1.78241E-003	0.00000E+000	2.32000E-001	7.20910E-004	9	...........	-327.63
	636	12.74	2.28226E-001	1.77805E-003	0.00000E+000	2.28000E-001	7.13410E-004	9	...........	-327.63
	638	12.78	2.24242E-001	1.77404E-003	0.00000E+000	2.24000E-001	7.29243E-004	9	...........	-327.63
	640	12.82	2.20228E-001	1.77019E-003	0.00000E+000	2.20000E-001	7.00910E-004	9	...........	-327.63
	642	12.86	2.16251E-001	1.76482E-003	0.00000E+000	2.16000E-001	7.07576E-004	9	...........	-327.63
	644	12.9	2.12251E-001	1.76004E-003	0.00000E+000	2.12000E-001	6.83410E-004	9	...........	-327.63
	646	12.94	2.08253E-001	1.75627E-003	0.00000E+000	2.08000E-001	7.30076E-004	9	...........	-327.63
	648	12.98	2.04265E-001	1.75034E-003	0.00000E+000	2.04000E-001	7.10910E-004	9	...........	-327.63
	650	13.02	2.00272E-001	1.74740E-003	0.00000E+000	2.00000E-001	7.35076E-004	9	...........	-327.63
	652	13.06	1.96279E-001	1.74211E-003	0.00000E+000	1.96000E-001	6.99243E-004	9	...........	-327.63
	654	13.1	1.92267E-001	1.73781E-003	0.00000E+000	1.92000E-001	7.09243E-004	9	...........	-327.63
	656	13.14	1.88298E-001	1.73421E-003	0.00000E+000	1.88000E-001	6.80910E-004	9	...........	-327.63
	658	13.18	1.84291E-001	1.72863E-003	0.00000E+000	1.84000E-001	7.40910E-004	9	...........	-327.63
	660	13.22	1.80288E-001	1.72501E-003	0.00000E+000	1.80000E-001	6.95910E-004	9	...........	-327.63
	662	13.26	1.76310E-001	1.72040E-003	0.00000E+000	1.76000E-001	7.44243E-004	9	...........	-327.63
	664	13.3	1.72306E-001	1.71499E-003	0.00000E+000	1.72000E-001	6.84243E-004	9	...........	-327.63
	666	13.34	1.68297E-001	1.71188E-003	0.00000E+000	1.68000E-001	7.24243E-004	9	...........	-327.63
	668	13.38	1.64338E-001	1.70668E-003	0.00000E+000	1.64000E-001	7.10910E-004	9	...........	-327.63
	670	13.42	1.60340E-001	1.70363E-003	0.00000E+000	1.60000E-001	7.29243E-004	9	...........	-327.63
	672	13.46	1.56325E-001	1.69691E-003	0.00000E+000	1.56000E-001	7.15910E-004	9	...........	-327.63
	674	13.5	1.52351E-001	1.69332E-003	0.00000E+000	1.52000E-001	7.21743E-004	9	...........	-327.63
	676	13.54	1.48351E-001	1.68890E-003	0.00000E+000	1.48000E-001	7.26743E-004	9	...........	-327.63
	678	13.58	1.44346E-001	1.68457E-003	0.00000E+000	1.44000E-001	7.10910E-004	9	...........	-327.63
	680	13.62	1.40375E-001	1.68077E-003	0.00000E+000	1.40000E-001	6.98410E-004	9	...........	-327.63
	682	13.66	1.36376E-001	1.67698E-003	0.00000E+000	1.36000E-001	7.15076E-004	9	...........	-327.63
	684	13.7	1.32378E-001	1.67281E-003	0.00000E+000	1.32000E-001	7.09243E-004	9	...........	-327.63
	686	13.74	1.28363E-001	1.66988E-003	0.00000E+000	1.28000E-001	7.15910E-004	9	...........	-327.63
	688	13.78	1.24396E-001	1.66521E-003	0.00000E+000	1.24000E-001	7.03410E-004	9	...........	-327.63
	690	13.82	1.20374E-001	1.65991E-003	0.00000E+000	1.20000E-001	7.39243E-004	9	...........	-327.63
	692	13.86	1.16387E-001	1.65561E-003	0.00000E+000	1.16000E-001	7.01743E-004	9	...........	-327.63
	694	13.9	1.12405E-001	1.65139E-003	0.00000E+000	1.12000E-001	7.28410E-004	9	...........	-327.63
	696	13.94	1.08398E-001	1.64806E-003	0.00000E+000	1.08000E-001	7.05076E-004	9	...........	-327.63
	698	13.98	1.04423E-001	1.64337E-003	0.00000E+000	1.04000E-001	7.22576E-004	9	...........	-327.63
	700	14.02	1.00447E-001	1.64010E-003	0.00000E+000	1.00000E-001	7.00910E-004	9	...........	-327.63
	702	14.06	9.64381E-002	1.63465E-003	0.00000E+000	9.60000E-002	7.21743E-004	9	...........	-327.63
	704	14.1	9.24310E-002	1.63148E-003	0.00000E+000	9.20000E-002	6.92576E-004	9	...........	-327.63
	706	14.14	8.84668E-002	1.62668E-003	0.00000E+000	8.80000E-002	7.37576E-004	9	...........	-327.63
	708	14.18	8.44481E-002	1.62186E-003	0.00000E+000	8.40000E-002	7.35076E-004	9	...........	-327.63
	710	14.22	8.04793E-002	1.61748E-003	0.00000E+000	8.00000E-002	7.18410E-004	9	...........	-327.63
	712	14.26	7.64718E-002	1.61359E-003	0.00000E+000	7.60000E-002	7.18410E-004	9	...........	-327.63
	714	14.3	7.24764E-002	1.60959E-003	0.00000E+000	7.20000E-002	7.25910E-004	9	...........	-327.63
	716	14.34	6.84760E-002	1.60608E-003	0.00000E+000	6.80000E-002	7.19243E-004	9	...........	-327.63
	718	14.38	6.44706E-002	1.60174E-003	0.00000E+000	6.40000E-002	7.38410E-004	9	...........	-327.63
	720	14.42	6.04902E-002	1.59782E-003	0.00000E+000	6.00000E-002	7.06743E-004	9	...........	-327.63
	722	14.46	5.64914E-002	1.59344E-003	0.00000E+000	5.60000E-002	7.24243E-004	9	...........	-327.63
	724	14.5	5.25056E-002	1.58985E-003	0.00000E+000	5.20000E-002	7.21743E-004	9	...........	-327.63
	726	14.54	4.85218E-002	1.58559E-003	0.00000E+000	4.80000E-002	7.24243E-004	9	...........	-327.63
	728	14.58	4.45118E-002	1.58102E-003	0.00000E+000	4.40000E-002	7.10076E-004	9	...........	-327.63
	730	14.62	4.05181E-002	1.57765E-003	0.00000E+000	4.00000E-002	7.22576E-004	9	...........	-327.63
	732	14.66	3.65443E-002	1.57606E-003	0.00000E+000	3.60000E-002	7.24243E-004	9	...........	-327.63
	734	14.7	3.25393E-002	1.56944E-003	0.00000E+000	3.20000E-002	7.36743E-004	9	...........	-327.63
	736	14.74	2.85460E-002	1.56519E-003	0.00000E+000	2.80000E-002	7.41743E-004	9	...........	-327.63
	738	14.78	2.45543E-002	1.56192E-003	0.00000E+000	2.40000E-002	7.30076E-004	9	...........	-327.63
	740	14.82	2.05589E-002	1.55760E-003	0.00000E+000	2.00000E-002	7.30076E-004	9	...........	-327.63
	742	14.86	1.65622E-002	1.55412E-003	0.00000E+000	1.60000E-002	7.31743E-004	9	...........	-327.63
	744	14.9	1.25756E-002	1.54954E-003	0.00000E+000	1.20000E-002	7.15076E-004	9	...........	-327.63
	746	14.94	8.57931E-003	1.54591E-003	0.00000E+000	8.00000E-003	7.22576E-004	9	...........	-327.63
	748	14.98	4.57306E-003	1.54269E-003	0.00000E+000	4.00000E-003	7.21743E-004	9	...........	-327.63
	750	15.02	5.58897E-004	1.53803E-003	0.00000E+000	0.00000E+000	7.38410E-004	9	...........	-327.63
	752	15.06	-3.43985E-003	1.53454E-003	0.00000E+000	-4.00000E-003	7.25910E-004	9	...........	-327.63
	754	15.1	-7.43360E-003	1.52992E-003	0.00000E+000	-8.00000E-003	7.28410E-004	9	...........	-327.63
	756	15.14	-1.14303E-002	1.52726E-003	0.00000E+000	-1.20000E-002	7.03410E-004	9	...........	-327.63
	758	15.18	-1.54074E-002	1.52377E-003	0.00000E+000	-1.60000E-002	7.40910E-004	9	...........	-327.63
	760	15.22	-1.94124E-002	1.51924E-003	0.00000E+000	-2.00000E-002	7.25910E-004	9	...........	-327.63
	762	15.26	-2.34119E-002	1.51672E-003	0.00000E+000	-2.40000E-002	7.32576E-004	9	...........	-327.63
	764	15.3	-2.74003E-002	1.51215E-003	0.00000E+000	-2.80000E-002	7.23410E-004	9	...........	-327.63
[...]
	3053	61.08	-3.92849E-001	1.09332E-003	0.00000E+000	-3.94000E-001	4.35076E-004	9	...........	-327.63
	3054	61.1	-3.90855E-001	1.09596E-003	0.00000E+000	-3.92000E-001	3.98410E-004	9	...........	-327.63
	3055	61.12	-3.88858E-001	1.09852E-003	0.00000E+000	-3.90000E-001	4.42576E-004	9	...........	-327.63
	3056	61.14	-3.86842E-001	1.10170E-003	0.00000E+000	-3.88000E-001	3.69243E-004	9	...........	-327.63
	3057	61.16	-3.84844E-001	1.10393E-003	0.00000E+000	-3.86000E-001	4.16743E-004	9	...........	-327.63
	3058	61.18	-3.82874E-001	1.10604E-003	0.00000E+000	-3.84000E-001	4.05910E-004	9	...........	-327.63
	3059	61.2	-3.80869E-001	1.10914E-003	0.00000E+000	-3.82000E-001	4.46743E-004	9	...........	-327.63
	3060	61.22	-3.78867E-001	1.11195E-003	0.00000E+000	-3.80000E-001	3.75076E-004	9	...........	-327.63
	3061	61.24	-3.76858E-001	1.11423E-003	0.00000E+000	-3.78000E-001	4.35910E-004	9	...........	-327.63
	3062	61.26	-3.74859E-001	1.11608E-003	0.00000E+000	-3.76000E-001	3.99243E-004	9	...........	-327.63
	3063	61.28	-3.72859E-001	1.11859E-003	0.00000E+000	-3.74000E-001	4.41743E-004	9	...........	-327.63
	3064	61.3	-3.70902E-001	1.12116E-003	0.00000E+000	-3.72000E-001	3.77576E-004	9	...........	-327.63
	3065	61.32	-3.68897E-001	1.12385E-003	0.00000E+000	-3.70000E-001	4.38410E-004	9	...........	-327.63
	3066	61.34	-3.66880E-001	1.12684E-003	0.00000E+000	-3.68000E-001	4.22576E-004	9	...........	-327.63
	3067	61.36	-3.64874E-001	1.12939E-003	0.00000E+000	-3.66000E-001	4.30076E-004	9	...........	-327.63
	3068	61.38	-3.62892E-001	1.13203E-003	0.00000E+000	-3.64000E-001	3.75076E-004	9	...........	-327.63
	3069	61.4	-3.60890E-001	1.13436E-003	0.00000E+000	-3.62000E-001	4.40076E-004	9	...........	-327.63
	3070	61.42	-3.58886E-001	1.13640E-003	0.00000E+000	-3.60000E-001	4.08410E-004	9	...........	-327.63
	3071	61.44	-3.56909E-001	1.13914E-003	0.00000E+000	-3.58000E-001	4.40076E-004	9	...........	-327.63
	3072	61.46	-3.54905E-001	1.14227E-003	0.00000E+000	-3.56000E-001	3.70076E-004	9	...........	-327.63
	3073	61.48	-3.52910E-001	1.14396E-003	0.00000E+000	-3.54000E-001	4.20076E-004	9	...........	-327.63
	3074	61.5	-3.50907E-001	1.14602E-003	0.00000E+000	-3.52000E-001	3.96743E-004	9	...........	-327.63
	3075	61.52	-3.48910E-001	1.14852E-003	0.00000E+000	-3.50000E-001	4.27576E-004	9	...........	-327.63
	3076	61.54	-3.46909E-001	1.15064E-003	0.00000E+000	-3.48000E-001	4.04243E-004	9	...........	-327.63
	3077	61.56	-3.44942E-001	1.15295E-003	0.00000E+000	-3.46000E-001	4.41743E-004	9	...........	-327.63
	3078	61.58	-3.42930E-001	1.15568E-003	0.00000E+000	-3.44000E-001	4.30076E-004	9	...........	-327.63
	3079	61.6	-3.40929E-001	1.15755E-003	0.00000E+000	-3.42000E-001	4.30076E-004	9	...........	-327.63
	3080	61.62	-3.38922E-001	1.15969E-003	0.00000E+000	-3.40000E-001	3.79243E-004	9	...........	-327.63
	3081	61.64	-3.36928E-001	1.16218E-003	0.00000E+000	-3.38000E-001	4.20910E-004	9	...........	-327.63
	3082	61.66	-3.34938E-001	1.16417E-003	0.00000E+000	-3.36000E-001	4.16743E-004	9	...........	-327.63
	3083	61.68	-3.32935E-001	1.16635E-003	0.00000E+000	-3.34000E-001	4.20076E-004	9	...........	-327.63
	3084	61.7	-3.30947E-001	1.16869E-003	0.00000E+000	-3.32000E-001	3.80910E-004	9	...........	-327.63
	3085	61.72	-3.28951E-001	1.17132E-003	0.00000E+000	-3.30000E-001	4.28410E-004	9	...........	-327.63
	3086	61.74	-3.26946E-001	1.17287E-003	0.00000E+000	-3.28000E-001	4.14243E-004	9	...........	-327.63
	3087	61.76	-3.24936E-001	1.17581E-003	0.00000E+000	-3.26000E-001	4.35910E-004	9	...........	-327.63
	3088	61.78	-3.22939E-001	1.17796E-003	0.00000E+000	-3.24000E-001	3.72576E-004	9	...........	-327.63
	3089	61.8	-3.20943E-001	1.18044E-003	0.00000E+000	-3.22000E-001	4.30910E-004	9	...........	-327.63
	3090	61.82	-3.18968E-001	1.18195E-003	0.00000E+000	-3.20000E-001	4.26743E-004	9	...........	-327.63
	3091	61.84	-3.16967E-001	1.18426E-003	0.00000E+000	-3.18000E-001	4.24243E-004	9	...........	-327.63
	3092	61.86	-3.14970E-001	1.18643E-003	0.00000E+000	-3.16000E-001	4.02576E-004	9	...........	-327.63
	3093	61.88	-3.12965E-001	1.18820E-003	0.00000E+000	-3.14000E-001	4.32576E-004	9	...........	-327.63
	3094	61.9	-3.10963E-001	1.19038E-003	0.00000E+000	-3.12000E-001	4.22576E-004	9	...........	-327.63
	3095	61.92	-3.08963E-001	1.19258E-003	0.00000E+000	-3.10000E-001	4.30076E-004	9	...........	-327.63
	3096	61.94	-3.06981E-001	1.19426E-003	0.00000E+000	-3.08000E-001	3.77576E-004	9	...........	-327.63
	3097	61.96	-3.05002E-001	1.19617E-003	0.00000E+000	-3.06000E-001	4.15076E-004	9	...........	-327.63
	3098	61.98	-3.02986E-001	1.19896E-003	0.00000E+000	-3.04000E-001	4.04243E-004	9	...........	-327.63
	3099	62	-3.00993E-001	1.20081E-003	0.00000E+000	-3.02000E-001	4.35910E-004	9	...........	-327.63
	3100	62.02	-2.98979E-001	1.20278E-003	0.00000E+000	-3.00000E-001	4.02576E-004	9	...........	-327.63
	3101	62.04	-2.96986E-001	1.20531E-003	0.00000E+000	-2.98000E-001	4.36743E-004	9	...........	-327.63
	3102	62.06	-2.94981E-001	1.20677E-003	0.00000E+000	-2.96000E-001	4.43410E-004	9	...........	-327.63
	3103	62.08	-2.93030E-001	1.20877E-003	0.00000E+000	-2.94000E-001	4.33410E-004	9	...........	-327.63
	3104	62.1	-2.90995E-001	1.21157E-003	0.00000E+000	-2.92000E-001	4.04243E-004	9	...........	-327.63
	3105	62.12	-2.89012E-001	1.21355E-003	0.00000E+000	-2.90000E-001	4.44243E-004	9	...........	-327.63
	3106	62.14	-2.87002E-001	1.21504E-003	0.00000E+000	-2.88000E-001	4.18410E-004	9	...........	-327.63
	3107	62.16	-2.85021E-001	1.21705E-003	0.00000E+000	-2.86000E-001	4.45076E-004	9	...........	-327.63
	3108	62.18	-2.82998E-001	1.21959E-003	0.00000E+000	-2.84000E-001	4.11743E-004	9	...........	-327.63
	3109	62.2	-2.81039E-001	1.22183E-003	0.00000E+000	-2.82000E-001	4.15076E-004	9	...........	-327.63
	3110	62.22	-2.79016E-001	1.22363E-003	0.00000E+000	-2.80000E-001	4.12576E-004	9	...........	-327.63
	3111	62.24	-2.77042E-001	1.22638E-003	0.00000E+000	-2.78000E-001	4.23410E-004	9	...........	-327.63
	3112	62.26	-2.75019E-001	1.22792E-003	0.00000E+000	-2.76000E-001	3.95910E-004	9	...........	-327.63
	3113	62.28	-2.73026E-001	1.22931E-003	0.00000E+000	-2.74000E-001	4.23410E-004	9	...........	-327.63
	3114	62.3	-2.71013E-001	1.23196E-003	0.00000E+000	-2.72000E-001	4.15076E-004	9	...........	-327.63
	3115	62.32	-2.69034E-001	1.23410E-003	0.00000E+000	-2.70000E-001	4.33410E-004	9	...........	-327.63
	3116	62.34	-2.67033E-001	1.23542E-003	0.00000E+000	-2.68000E-001	4.18410E-004	9	...........	-327.63
	3117	62.36	-2.65062E-001	1.23748E-003	0.00000E+000	-2.66000E-001	4.25910E-004	9	...........	-327.63
	3118	62.38	-2.63043E-001	1.23990E-003	0.00000E+000	-2.64000E-001	4.17576E-004	9	...........	-327.63
	3119	62.4	-2.61051E-001	1.24110E-003	0.00000E+000	-2.62000E-001	4.17576E-004	9	...........	-327.63
	3120	62.42	-2.59040E-001	1.24311E-003	0.00000E+000	-2.60000E-001	3.79243E-004	9	...........	-327.63
	3121	62.44	-2.57051E-001	1.24548E-003	0.00000E+000	-2.58000E-001	4.25910E-004	9	...........	-327.63
	3122	62.46	-2.55071E-001	1.24712E-003	0.00000E+000	-2.56000E-001	4.10910E-004	9	...........	-327.63
	3123	62.48	-2.53082E-001	1.24858E-003	0.00000E+000	-2.54000E-001	4.05910E-004	9	...........	-327.63
	3124	62.5	-2.51069E-001	1.25046E-003	0.00000E+000	-2.52000E-001	4.20076E-004	9	...........	-327.63
	3125	62.52	-2.49088E-001	1.25358E-003	0.00000E+000	-2.50000E-001	4.16743E-004	9	...........	-327.63
	3126	62.54	-2.47068E-001	1.25476E-003	0.00000E+000	-2.48000E-001	4.20076E-004	9	...........	-327.63
	3127	62.56	-2.45078E-001	1.25639E-003	0.00000E+000	-2.46000E-001	4.21743E-004	9	...........	-327.63
	3128	62.58	-2.43080E-001	1.25857E-003	0.00000E+000	-2.44000E-001	4.21743E-004	9	...........	-327.63
	3129	62.6	-2.41113E-001	1.26056E-003	0.00000E+000	-2.42000E-001	4.15076E-004	9	...........	-327.63
	3130	62.62	-2.39093E-001	1.26198E-003	0.00000E+000	-2.40000E-001	4.40910E-004	9	...........	-327.63
	3131	62.64	-2.37098E-001	1.26395E-003	0.00000E+000	-2.38000E-001	4.32576E-004	9	...........	-327.63
	3132	62.66	-2.35083E-001	1.26648E-003	0.00000E+000	-2.36000E-001	4.25910E-004	9	...........	-327.63
	3133	62.68	-2.33103E-001	1.26727E-003	0.00000E+000	-2.34000E-001	4.00910E-004	9	...........	-327.63
	3134	62.7	-2.31094E-001	1.26925E-003	0.00000E+000	-2.32000E-001	4.27576E-004	9	...........	-327.63
	3135	62.72	-2.29108E-001	1.27120E-003	0.00000E+000	-2.30000E-001	4.06743E-004	9	...........	-327.63
	3136	62.74	-2.27091E-001	1.27238E-003	0.00000E+000	-2.28000E-001	4.09243E-004	9	...........	-327.63
	3137	62.76	-2.25112E-001	1.27461E-003	0.00000E+000	-2.26000E-001	3.97576E-004	9	...........	-327.63
	3138	62.78	-2.23107E-001	1.27767E-003	0.00000E+000	-2.24000E-001	4.35910E-004	9	...........	-327.63
	3139	62.8	-2.21113E-001	1.27864E-003	0.00000E+000	-2.22000E-001	4.21743E-004	9	...........	-327.63
	3140	62.82	-2.19109E-001	1.28042E-003	0.00000E+000	-2.20000E-001	4.28410E-004	9	...........	-327.63
	3141	62.84	-2.17134E-001	1.28275E-003	0.00000E+000	-2.18000E-001	4.27576E-004	9	...........	-327.63
	3142	62.86	-2.15134E-001	1.28432E-003	0.00000E+000	-2.16000E-001	4.37576E-004	9	...........	-327.63
	3143	62.88	-2.13133E-001	1.28546E-003	0.00000E+000	-2.14000E-001	4.40910E-004	9	...........	-327.63
	3144	62.9	-2.11122E-001	1.28736E-003	0.00000E+000	-2.12000E-001	4.40076E-004	9	...........	-327.63
	3145	62.92	-2.09132E-001	1.28979E-003	0.00000E+000	-2.10000E-001	3.89243E-004	9	...........	-327.63
	3146	62.94	-2.07131E-001	1.29164E-003	0.00000E+000	-2.08000E-001	4.22576E-004	9	...........	-327.63
	3147	62.96	-2.05132E-001	1.29357E-003	0.00000E+000	-2.06000E-001	4.30076E-004	9	...........	-327.63
	3148	62.98	-2.03130E-001	1.29530E-003	0.00000E+000	-2.04000E-001	4.20076E-004	9	...........	-327.63
	3149	63	-2.01142E-001	1.29671E-003	0.00000E+000	-2.02000E-001	3.97576E-004	9	...........	-327.63
	3150	63.02	-1.99148E-001	1.29851E-003	0.00000E+000	-2.00000E-001	4.37576E-004	9	...........	-327.63
	3151	63.04	-1.97158E-001	1.29992E-003	0.00000E+000	-1.98000E-001	3.97576E-004	9	...........	-327.63
	3152	63.06	-1.95149E-001	1.30149E-003	0.00000E+000	-1.96000E-001	4.33410E-004	9	...........	-327.63
	3153	63.08	-1.93153E-001	1.30346E-003	0.00000E+000	-1.94000E-001	4.04243E-004	9	...........	-327.63
	3154	63.1	-1.91171E-001	1.30538E-003	0.00000E+000	-1.92000E-001	4.48410E-004	9	...........	-327.63
	3155	63.12	-1.89177E-001	1.30768E-003	0.00000E+000	-1.90000E-001	4.24243E-004	9	...........	-327.63
	3156	63.14	-1.87176E-001	1.31057E-003	0.00000E+000	-1.88000E-001	4.36743E-004	9	...........	-327.63
	3157	63.16	-1.85162E-001	1.31278E-003	0.00000E+000	-1.86000E-001	4.06743E-004	9	...........	-327.63
	3158	63.18	-1.83172E-001	1.31508E-003	0.00000E+000	-1.84000E-001	4.25910E-004	9	...........	-327.63
	3159	63.2	-1.81173E-001	1.31780E-003	0.00000E+000	-1.82000E-001	4.18410E-004	9	...........	-327.63
	3160	63.22	-1.79162E-001	1.31893E-003	0.00000E+000	-1.80000E-001	4.39243E-004	9	...........	-327.63
	3161	63.24	-1.77178E-001	1.32086E-003	0.00000E+000	-1.78000E-001	3.73410E-004	9	...........	-327.63
	3162	63.26	-1.75190E-001	1.32201E-003	0.00000E+000	-1.76000E-001	4.36743E-004	9	...........	-327.63
	3163	63.28	-1.73194E-001	1.32353E-003	0.00000E+000	-1.74000E-001	3.88410E-004	9	...........	-327.63
	3164	63.3	-1.71182E-001	1.32510E-003	0.00000E+000	-1.72000E-001	4.25076E-004	9	...........	-327.63
	3165	63.32	-1.69173E-001	1.32666E-003	0.00000E+000	-1.70000E-001	3.83410E-004	9	...........	-327.63
	3166	63.34	-1.67195E-001	1.32950E-003	0.00000E+000	-1.68000E-001	4.40910E-004	9	...........	-327.63
	3167	63.36	-1.65221E-001	1.33089E-003	0.00000E+000	-1.66000E-001	4.20910E-004	9	...........	-327.63
	3168	63.38	-1.63187E-001	1.33206E-003	0.00000E+000	-1.64000E-001	4.35076E-004	9	...........	-327.63
	3169	63.4	-1.61197E-001	1.33379E-003	0.00000E+000	-1.62000E-001	3.95076E-004	9	...........	-327.63
	3170	63.42	-1.59197E-001	1.33540E-003	0.00000E+000	-1.60000E-001	4.40076E-004	9	...........	-327.63
	3171	63.44	-1.57215E-001	1.33601E-003	0.00000E+000	-1.58000E-001	4.00076E-004	9	...........	-327.63
	3172	63.46	-1.55206E-001	1.34040E-003	0.00000E+000	-1.56000E-001	4.36743E-004	9	...........	-327.63
	3173	63.48	-1.53251E-001	1.34073E-003	0.00000E+000	-1.54000E-001	3.96743E-004	9	...........	-327.63
	3174	63.5	-1.51239E-001	1.34178E-003	0.00000E+000	-1.52000E-001	4.35910E-004	9	...........	-327.63
	3175	63.52	-1.49238E-001	1.34284E-003	0.00000E+000	-1.50000E-001	4.06743E-004	9	...........	-327.63
	3176	63.54	-1.47229E-001	1.34496E-003	0.00000E+000	-1.48000E-001	4.45076E-004	9	...........	-327.63
	3177	63.56	-1.45227E-001	1.34719E-003	0.00000E+000	-1.46000E-001	3.67576E-004	9	...........	-327.63
	3178	63.58	-1.43230E-001	1.34732E-003	0.00000E+000	-1.44000E-001	4.33410E-004	9	...........	-327.63
	3179	63.6	-1.41237E-001	1.34953E-003	0.00000E+000	-1.42000E-001	4.09243E-004	9	...........	-327.63
	3180	63.62	-1.39261E-001	1.35141E-003	0.00000E+000	-1.40000E-001	4.46743E-004	9	...........	-327.63
	3181	63.64	-1.37262E-001	1.35231E-003	0.00000E+000	-1.38000E-001	3.72576E-004	9	...........	-327.63
	3182	63.66	-1.35248E-001	1.35434E-003	0.00000E+000	-1.36000E-001	4.32576E-004	9	...........	-327.63
	3183	63.68	-1.33248E-001	1.35636E-003	0.00000E+000	-1.34000E-001	4.06743E-004	9	...........	-327.63
	3184	63.7	-1.31252E-001	1.35763E-003	0.00000E+000	-1.32000E-001	4.39243E-004	9	...........	-327.63
	3185	63.72	-1.29256E-001	1.35908E-003	0.00000E+000	-1.30000E-001	3.95910E-004	9	...........	-327.63
	3186	63.74	-1.27264E-001	1.36089E-003	0.00000E+000	-1.28000E-001	4.50910E-004	9	...........	-327.63
	3187	63.76	-1.25270E-001	1.36354E-003	0.00000E+000	-1.26000E-001	4.15076E-004	9	...........	-327.63
	3188	63.78	-1.23264E-001	1.36394E-003	0.00000E+000	-1.24000E-001	4.60910E-004	9	...........	-327.63
	3189	63.8	-1.21252E-001	1.36600E-003	0.00000E+000	-1.22000E-001	3.87576E-004	9	...........	-327.63
	3190	63.82	-1.19269E-001	1.36827E-003	0.00000E+000	-1.20000E-001	4.35076E-004	9	...........	-327.63
	3191	63.84	-1.17259E-001	1.36969E-003	0.00000E+000	-1.18000E-001	4.08410E-004	9	...........	-327.63
	3192	63.86	-1.15263E-001	1.37259E-003	0.00000E+000	-1.16000E-001	4.35910E-004	9	...........	-327.63
	3193	63.88	-1.13288E-001	1.37388E-003	0.00000E+000	-1.14000E-001	4.07576E-004	9	...........	-327.63
	3194	63.9	-1.11289E-001	1.37503E-003	0.00000E+000	-1.12000E-001	4.45910E-004	9	...........	-327.63
	3195	63.92	-1.09302E-001	1.37754E-003	0.00000E+000	-1.10000E-001	4.07576E-004	9	...........	-327.63
	3196	63.94	-1.07294E-001	1.37930E-003	0.00000E+000	-1.08000E-001	4.35076E-004	9	...........	-327.63
	3197	63.96	-1.05293E-001	1.38122E-003	0.00000E+000	-1.06000E-001	3.95910E-004	9	...........	-327.63
	3198	63.98	-1.03285E-001	1.38206E-003	0.00000E+000	-1.04000E-001	4.46743E-004	9	...........	-327.63
	3199	64	-1.01316E-001	1.38349E-003	0.00000E+000	-1.02000E-001	4.06743E-004	9	...........	-327.63
	3200	64.02	-9.93082E-002	1.38596E-003	0.00000E+000	-1.00000E-001	4.25076E-004	9	...........	-327.63
	3201	64.04	-9.73124E-002	1.39243E-003	0.00000E+000	-9.80000E-002	3.79243E-004	9	...........	-327.63
	3202	64.06	-9.53149E-002	1.39249E-003	0.00000E+000	-9.60000E-002	4.30076E-004	9	...........	-327.63
	3203	64.08	-9.33148E-002	1.39367E-003	0.00000E+000	-9.40000E-002	4.14243E-004	9	...........	-327.63
	3204	64.1	-9.13144E-002	1.39346E-003	0.00000E+000	-9.20000E-002	4.43410E-004	9	...........	-327.63
	3205	64.12	-8.93278E-002	1.39589E-003	0.00000E+000	-9.00000E-002	3.91743E-004	9	...........	-327.63
	3206	64.14	-8.73457E-002	1.39761E-003	0.00000E+000	-8.80000E-002	4.35910E-004	9	...........	-327.63
	3207	64.16	-8.53282E-002	1.39925E-003	0.00000E+000	-8.60000E-002	4.13410E-004	9	...........	-327.63
	3208	64.18	-8.33419E-002	1.40126E-003	0.00000E+000	-8.40000E-002	4.21743E-004	9	...........	-327.63
	3209	64.2	-8.13298E-002	1.40300E-003	0.00000E+000	-8.20000E-002	3.81743E-004	9	...........	-327.63
	3210	64.22	-7.93482E-002	1.40527E-003	0.00000E+000	-8.00000E-002	4.48410E-004	9	...........	-327.63
	3211	64.24	-7.73448E-002	1.40659E-003	0.00000E+000	-7.80000E-002	4.18410E-004	9	...........	-327.63
	3212	64.26	-7.53494E-002	1.40875E-003	0.00000E+000	-7.60000E-002	4.45076E-004	9	...........	-327.63
	3213	64.28	-7.33365E-002	1.41158E-003	0.00000E+000	-7.40000E-002	3.80076E-004	9	...........	-327.63
	3214	64.3	-7.13578E-002	1.41283E-003	0.00000E+000	-7.20000E-002	4.30910E-004	9	...........	-327.63
	3215	64.32	-6.93461E-002	1.41404E-003	0.00000E+000	-7.00000E-002	3.85076E-004	9	...........	-327.63
	3216	64.34	-6.73494E-002	1.41596E-003	0.00000E+000	-6.80000E-002	4.38410E-004	9	...........	-327.63
	3217	64.36	-6.53415E-002	1.41781E-003	0.00000E+000	-6.60000E-002	4.07576E-004	9	...........	-327.63
	3218	64.38	-6.33765E-002	1.41997E-003	0.00000E+000	-6.40000E-002	4.32576E-004	9	...........	-327.63
	3219	64.4	-6.13632E-002	1.42234E-003	0.00000E+000	-6.20000E-002	4.42576E-004	9	...........	-327.63
	3220	64.42	-5.93748E-002	1.42422E-003	0.00000E+000	-6.00000E-002	4.27576E-004	9	...........	-327.63
	3221	64.44	-5.73498E-002	1.42512E-003	0.00000E+000	-5.80000E-002	3.97576E-004	9	...........	-327.63
	3222	64.46	-5.53682E-002	1.42714E-003	0.00000E+000	-5.60000E-002	4.22576E-004	9	...........	-327.63
	3223	64.48	-5.33740E-002	1.42875E-003	0.00000E+000	-5.40000E-002	4.18410E-004	9	...........	-327.63
	3224	64.5	-5.13623E-002	1.43082E-003	0.00000E+000	-5.20000E-002	4.28410E-004	9	...........	-327.63
	3225	64.52	-4.93803E-002	1.43141E-003	0.00000E+000	-5.00000E-002	3.97576E-004	9	...........	-327.63
	3226	64.54	-4.73878E-002	1.43449E-003	0.00000E+000	-4.80000E-002	4.33410E-004	9	...........	-327.63
	3227	64.56	-4.53857E-002	1.43623E-003	0.00000E+000	-4.60000E-002	4.10910E-004	9	...........	-327.63
	3228	64.58	-4.33790E-002	1.43776E-003	0.00000E+000	-4.40000E-002	4.43410E-004	9	...........	-327.63
	3229	64.6	-4.14032E-002	1.44037E-003	0.00000E+000	-4.20000E-002	4.02576E-004	9	...........	-327.63
	3230	64.62	-3.94049E-002	1.44297E-003	0.00000E+000	-4.00000E-002	4.29243E-004	9	...........	-327.63
	3231	64.64	-3.74136E-002	1.44845E-003	0.00000E+000	-3.80000E-002	4.30910E-004	9	...........	-327.63
	3232	64.66	-3.54273E-002	1.44625E-003	0.00000E+000	-3.60000E-002	4.27576E-004	9	...........	-327.63
	3233	64.68	-3.33957E-002	1.44790E-003	0.00000E+000	-3.40000E-002	4.07576E-004	9	...........	-327.63
	3234	64.7	-3.14144E-002	1.45340E-003	0.00000E+000	-3.20000E-002	4.24243E-004	9	...........	-327.63
	3235	64.72	-2.94140E-002	1.45201E-003	0.00000E+000	-3.00000E-002	4.07576E-004	9	...........	-327.63
	3236	64.74	-2.74107E-002	1.45372E-003	0.00000E+000	-2.80000E-002	4.22576E-004	9	...........	-327.63
	3237	64.76	-2.54236E-002	1.45684E-003	0.00000E+000	-2.60000E-002	4.07576E-004	9	...........	-327.63
	3238	64.78	-2.34253E-002	1.45823E-003	0.00000E+000	-2.40000E-002	4.41743E-004	9	...........	-327.63
	3239	64.8	-2.14161E-002	1.46032E-003	0.00000E+000	-2.20000E-002	4.07576E-004	9	...........	-327.63
	3240	64.82	-1.94340E-002	1.46128E-003	0.00000E+000	-2.00000E-002	4.27576E-004	9	...........	-327.63
	3241	64.84	-1.74165E-002	1.46296E-003	0.00000E+000	-1.80000E-002	3.85910E-004	9	...........	-327.63
	3242	64.86	-1.54186E-002	1.46368E-003	0.00000E+000	-1.60000E-002	4.20076E-004	9	...........	-327.63
	3243	64.88	-1.34361E-002	1.46603E-003	0.00000E+000	-1.40000E-002	4.22576E-004	9	...........	-327.63
	3244	64.9	-1.14769E-002	1.46881E-003	0.00000E+000	-1.20000E-002	4.39243E-004	9	...........	-327.63
	3245	64.92	-9.43985E-003	1.47070E-003	0.00000E+000	-1.00000E-002	4.22576E-004	9	...........	-327.63
	3246	64.94	-7.46069E-003	1.47316E-003	0.00000E+000	-8.00000E-003	4.25076E-004	9	...........	-327.63
	3247	64.96	-5.43277E-003	1.47398E-003	0.00000E+000	-6.00000E-003	4.20076E-004	9	...........	-327.63
	3248	64.98	-3.45694E-003	1.47602E-003	0.00000E+000	-4.00000E-003	4.25076E-004	9	...........	-327.63
	3249	65	-1.44402E-003	1.47954E-003	0.00000E+000	-2.00000E-003	4.05910E-004	9	...........	-327.63
	3250	65.02	5.51398E-004	1.47966E-003	0.00000E+000	0.00000E+000	4.27576E-004	9	...........	-327.63