File: Gamry/CV_fullWindow_openCircuit.DTA
EXPLAIN
TAG	CV
TITLE	LABEL	Cyclic Voltammetry	Test &Identifier
DATE	LABEL	5-12-2022	Date
TIME	LABEL	13:27:15	Time
NOTES	NOTES	1	&Notes...

PSTAT	PSTAT	REF3000-20110	Potentiostat
VINIT	POTEN	0.00000E+000	F	Initial &E (V)
VLIMIT1	POTEN	5.00000E-001	F	Scan Limit &1 (V)
VLIMIT2	POTEN	-5.00000E-001	F	Scan Limit &2 (V)
VFINAL	POTEN	0.00000E+000	F	Final &E (V)
SCANRATE	QUANT	9.99998E+001	&Scan Rate (mV/s)
STEPSIZE	QUANT	2.00000E+000	St&ep Size (mV)
CYCLES	IQUANT	3	C&ycles (#)
IMODE	SELECTOR	0	I/E Range &Mode
IRANGE	QUANT	3.00000E-001	&Max Current (mA)
AREA	QUANT	1.00000E+000	Electrode &Area (cm^2)
ELECTRODETYPE	SELECTOR	0	Electrode Type
STRIPPING	TOGGLE	F	Used for Stripping
CONDIT	TWOPARAM	F	1.50000E+001	0.00000E+000	Conditionin&g	Time(s)	E(V)
DELAY	TWOPARAM	F	3.00000E+001	0.00000E+000	Init. De&lay	Time(s)	Stab.(mV/s)
EQDELAY	QUANT	0.00000E+000	Equil. &Time (s)
IRCOMP	SELECTOR	0	IRCom&p
PFCOR	QUANT	5.00000E+001	PF Corr. (ohm)
SAMPLINGMODE	SELECTOR	1	Sampling &Mode
EOC	QUANT	0	Open Circuit (V)
PSTATMODEL	IQUANT	5	Pstat Model
PSTATSECTION	LABEL	REF3000-20110	Pstat Section
PSTATSERIALNO	LABEL	20110	Pstat Serial Number
CTRLMODE	IQUANT	1	Control Mode
ELECTROMETER	IQUANT	0	RE=0 or CS=1
IESTAB	IQUANT	2	I/E Stability
CASPEED	IQUANT	4	Control Amp Speed
CONVENTION	IQUANT	1	Current Convention
ICHRANGE	IQUANT	2	Ich Range
ICHRANGEMODE	TOGGLE	F	Ich Auto Range
ICHOFFSETENABLE	TOGGLE	F	Ich Offset Enable
ICHOFFSET	QUANT	0	Ich Offset (V)
ICHFILTER	IQUANT	2	Ich Filter
VCHRANGE	IQUANT	2	Vch Range
VCHRANGEMODE	TOGGLE	F	Vch Auto Range
VCHOFFSETENABLE	TOGGLE	F	Vch Offset Enable
VCHOFFSET	QUANT	0	Vch Offset (V)
VCHFILTER	IQUANT	2	Vch Filter
ACHRANGE	IQUANT	2	Ach Range
ACHOFFSETENABLE	TOGGLE	F	Ach Offset Enable
ACHOFFSET	QUANT	0	Ach Offset (V)
ACHFILTER	IQUANT	1	Ach Filter
IERANGELOWERLIMIT	IQUANT	2	I/E Range Lower Limit
IERANGEMODE	TOGGLE	T	I/E AutoRange
IERANGE	IQUANT	9	I/E Range
POSFEEDENABLE	TOGGLE	F	Positive Feedback IR Comp
POSFEEDRESISTANCE	QUANT	0	Positive Feedback Resistance (ohm)
ACHSELECT	IQUANT	4	Ach Select
SENSECABLEID	IQUANT	14	Sense Cable ID
PWRCABLEID	IQUANT	7	Power Cable ID
DCCALDATE	LABEL	8/9/2022	DC Calibration Date
ACCALDATE	LABEL	8/9/2022	AC Calibration Date
THERMOSELECT	IQUANT	1	Thermo Select
FRAMEWORKVERSION	LABEL	7.9.0	Framework Version
INSTRUMENTVERSION	LABEL	4.60	Instrument Version
COMPLIANCEVOLTAGE	IQUANT	0	Compliance Voltage
CURVE1	TABLE
	Pt	T	Vf	Im	Vu	Sig	Ach	IERange	Over	Temp
	#	s	V vs. Ref.	A	V	V	V	#	bits	deg C
	0	0.02	3.38897E-004	-5.18246E-008	0.00000E+000	0.00000E+000	7.18410E-004	9	...........	-327.63
	2	0.06	4.40759E-003	-8.78314E-010	0.00000E+000	4.00000E-003	6.95076E-004	7	...........	-327.63
	4	0.1	8.39259E-003	-8.32479E-010	0.00000E+000	8.00000E-003	7.08410E-004	7	...........	-327.63
	6	0.14	1.23297E-002	-7.57477E-010	0.00000E+000	1.20000E-002	7.11743E-004	7	...........	-327.63
	8	0.18	1.63388E-002	-7.94978E-010	0.00000E+000	1.60000E-002	7.00076E-004	7	...........	-327.63
	10	0.22	2.03234E-002	-6.36639E-010	0.00000E+000	2.00000E-002	7.02576E-004	7	...........	-327.63
	12	0.26	2.43105E-002	-5.53302E-010	0.00000E+000	2.40000E-002	7.00076E-004	7	...........	-327.63
	14	0.3	2.82738E-002	-4.19964E-010	0.00000E+000	2.80000E-002	7.08410E-004	7	...........	-327.63
	16	0.34	3.22563E-002	-4.53299E-010	0.00000E+000	3.20000E-002	7.10910E-004	7	...........	-327.63
	18	0.38	3.62109E-002	-4.15797E-010	0.00000E+000	3.60000E-002	7.07576E-004	7	...........	-327.63
	20	0.42	4.01659E-002	-7.82846E-011	0.00000E+000	4.00000E-002	7.02576E-004	7	...........	-327.63
	22	0.46	4.41526E-002	-1.49121E-010	0.00000E+000	4.40000E-002	6.98410E-004	7	...........	-327.63
	24	0.5	4.81063E-002	-1.61621E-010	0.00000E+000	4.80000E-002	7.02576E-004	7	...........	-327.63
	26	0.54	5.20747E-002	-1.57454E-010	0.00000E+000	5.20000E-002	7.03410E-004	7	...........	-327.63
	28	0.58	5.60805E-002	-1.49121E-010	0.00000E+000	5.60000E-002	6.95076E-004	7	...........	-327.63
	30	0.62	6.00759E-002	-1.03286E-010	0.00000E+000	6.00000E-002	7.14243E-004	7	...........	-327.63
	32	0.66	6.40772E-002	-5.32836E-011	0.00000E+000	6.40000E-002	7.01743E-004	7	...........	-327.63
	34	0.7	6.80209E-002	1.25890E-010	0.00000E+000	6.80000E-002	7.00076E-004	7	...........	-327.63
	36	0.74	7.20034E-002	2.80062E-010	0.00000E+000	7.20000E-002	7.12576E-004	7	...........	-327.63
	38	0.78	7.59743E-002	2.50894E-010	0.00000E+000	7.60000E-002	6.99243E-004	7	...........	-327.63
	40	0.82	7.99388E-002	3.34231E-010	0.00000E+000	8.00000E-002	6.97576E-004	7	...........	-327.63
	42	0.86	8.38834E-002	5.63406E-010	0.00000E+000	8.40000E-002	7.06743E-004	7	...........	-327.63
	44	0.9	8.78238E-002	6.13408E-010	0.00000E+000	8.80000E-002	7.15910E-004	7	...........	-327.63
	46	0.94	9.18038E-002	6.42576E-010	0.00000E+000	9.20000E-002	7.06743E-004	7	...........	-327.63
	48	0.98	9.58059E-002	6.46742E-010	0.00000E+000	9.60000E-002	7.05076E-004	7	...........	-327.63
	50	1.02	9.97830E-002	8.30083E-010	0.00000E+000	1.00000E-001	7.10910E-004	7	...........	-327.63
	52	1.06	1.03734E-001	7.84248E-010	0.00000E+000	1.04000E-001	7.05076E-004	7	...........	-327.63
	54	1.1	1.07715E-001	8.92585E-010	0.00000E+000	1.08000E-001	7.14243E-004	7	...........	-327.63
	56	1.14	1.11708E-001	1.02176E-009	0.00000E+000	1.12000E-001	7.07576E-004	7	...........	-327.63
	58	1.18	1.15683E-001	9.75921E-010	0.00000E+000	1.16000E-001	7.02576E-004	7	..ch.......	-327.63
	60	1.22	1.29007E-001	5.96741E-010	0.00000E+000	1.20000E-001	6.98410E-004	7	..ch.......	-327.63
	62	1.26	1.10037E-001	1.13426E-009	0.00000E+000	1.24000E-001	7.06743E-004	7	..ch.......	-327.63
	64	1.3	1.04789E-001	1.25927E-009	0.00000E+000	1.28000E-001	7.05910E-004	7	..ch.......	-327.63
	66	1.34	1.05236E-001	1.27593E-009	0.00000E+000	1.32000E-001	7.15076E-004	7	..ch.......	-327.63
	68	1.38	1.06295E-001	1.24676E-009	0.00000E+000	1.36000E-001	7.15076E-004	7	..ch.......	-327.63
	70	1.42	1.10776E-001	1.37594E-009	0.00000E+000	1.40000E-001	7.33410E-004	7	..ch.......	-327.63
	72	1.46	1.21375E-001	1.26760E-009	0.00000E+000	1.44000E-001	6.96743E-004	7	..ch.......	-327.63
	74	1.5	1.21631E-001	1.60094E-009	0.00000E+000	1.48000E-001	6.88410E-004	7	..ch.......	-327.63
	76	1.54	1.20161E-001	1.42177E-009	0.00000E+000	1.52000E-001	7.16743E-004	7	..ch.......	-327.63
	78	1.58	1.21196E-001	1.79679E-009	0.00000E+000	1.56000E-001	7.07576E-004	7	..ch.......	-327.63
	80	1.62	1.14353E-001	1.67595E-009	0.00000E+000	1.60000E-001	7.23410E-004	7	..ch.......	-327.63
	82	1.66	9.71543E-002	1.50511E-009	0.00000E+000	1.64000E-001	7.17576E-004	7	..ch.......	-327.63
	84	1.7	9.22722E-002	1.79679E-009	0.00000E+000	1.68000E-001	7.04243E-004	7	..ch.......	-327.63
	86	1.74	9.50301E-002	2.00096E-009	0.00000E+000	1.72000E-001	7.00910E-004	7	..ch.......	-327.63
	88	1.78	1.04973E-001	1.99263E-009	0.00000E+000	1.76000E-001	7.15076E-004	7	..ch.......	-327.63
	90	1.82	1.18488E-001	2.20930E-009	0.00000E+000	1.80000E-001	7.00910E-004	7	..ch.......	-327.63
	92	1.86	1.50215E-001	3.09683E-009	0.00000E+000	1.84000E-001	6.98410E-004	7	..ch.......	-327.63
	94	1.9	1.87380E-001	2.25097E-009	0.00000E+000	1.88000E-001	7.10076E-004	7	..ch.......	-327.63
	96	1.94	1.91367E-001	2.09680E-009	0.00000E+000	1.92000E-001	7.09243E-004	7	...........	-327.63
	98	1.98	1.95342E-001	2.43431E-009	0.00000E+000	1.96000E-001	6.94243E-004	7	...........	-327.63
	100	2.02	1.99352E-001	2.32180E-009	0.00000E+000	2.00000E-001	6.95076E-004	7	...........	-327.63
	102	2.06	2.03343E-001	2.36347E-009	0.00000E+000	2.04000E-001	7.12576E-004	7	...........	-327.63
	104	2.1	2.07310E-001	2.50515E-009	0.00000E+000	2.08000E-001	7.05910E-004	7	...........	-327.63
	106	2.14	2.11314E-001	2.55931E-009	0.00000E+000	2.12000E-001	6.98410E-004	7	...........	-327.63
	108	2.18	2.15293E-001	2.83016E-009	0.00000E+000	2.16000E-001	7.01743E-004	7	...........	-327.63
	110	2.22	2.19259E-001	2.80932E-009	0.00000E+000	2.20000E-001	7.04243E-004	7	...........	-327.63
	112	2.26	2.23238E-001	2.75932E-009	0.00000E+000	2.24000E-001	6.96743E-004	7	...........	-327.63
	114	2.3	2.27233E-001	2.85099E-009	0.00000E+000	2.28000E-001	6.98410E-004	7	...........	-327.63
	116	2.34	2.31211E-001	3.08850E-009	0.00000E+000	2.32000E-001	7.10910E-004	7	...........	-327.63
	118	2.38	2.35180E-001	3.03850E-009	0.00000E+000	2.36000E-001	7.04243E-004	7	...........	-327.63
	120	2.42	2.39151E-001	3.18850E-009	0.00000E+000	2.40000E-001	7.00910E-004	7	...........	-327.63
	122	2.46	2.43075E-001	3.51768E-009	0.00000E+000	2.44000E-001	7.00910E-004	7	...........	-327.63
	124	2.5	2.47088E-001	3.31768E-009	0.00000E+000	2.48000E-001	7.20910E-004	7	...........	-327.63
	126	2.54	2.51056E-001	3.49685E-009	0.00000E+000	2.52000E-001	7.10076E-004	7	...........	-327.63
	128	2.58	2.55062E-001	3.66352E-009	0.00000E+000	2.56000E-001	7.04243E-004	7	...........	-327.63
	130	2.62	2.59031E-001	3.62185E-009	0.00000E+000	2.60000E-001	7.14243E-004	7	...........	-327.63
	132	2.66	2.63066E-001	3.45935E-009	0.00000E+000	2.64000E-001	7.13410E-004	7	...........	-327.63
	134	2.7	2.67014E-001	3.93020E-009	0.00000E+000	2.68000E-001	7.16743E-004	7	...........	-327.63
	136	2.74	2.70962E-001	3.87603E-009	0.00000E+000	2.72000E-001	7.06743E-004	7	...........	-327.63
	138	2.78	2.74974E-001	4.01353E-009	0.00000E+000	2.76000E-001	7.28410E-004	7	...........	-327.63
	140	2.82	2.78944E-001	4.15937E-009	0.00000E+000	2.80000E-001	7.04243E-004	7	...........	-327.63
	142	2.86	2.82901E-001	4.41772E-009	0.00000E+000	2.84000E-001	7.05076E-004	7	...........	-327.63
	144	2.9	2.86889E-001	4.36771E-009	0.00000E+000	2.88000E-001	7.15910E-004	7	...........	-327.63
	146	2.94	2.90879E-001	4.63439E-009	0.00000E+000	2.92000E-001	7.05076E-004	7	...........	-327.63
	148	2.98	2.94836E-001	4.54272E-009	0.00000E+000	2.96000E-001	7.09243E-004	7	...........	-327.63
	150	3.02	2.98824E-001	4.75523E-009	0.00000E+000	3.00000E-001	7.11743E-004	7	...........	-327.63
	152	3.06	3.02813E-001	4.65106E-009	0.00000E+000	3.04000E-001	7.15910E-004	7	...........	-327.63
	154	3.1	3.06782E-001	4.94690E-009	0.00000E+000	3.08000E-001	7.03410E-004	7	...........	-327.63
	156	3.14	3.10744E-001	4.95524E-009	0.00000E+000	3.12000E-001	7.19243E-004	7	...........	-327.63
	158	3.18	3.14730E-001	5.12608E-009	0.00000E+000	3.16000E-001	6.87576E-004	7	...........	-327.63
	160	3.22	3.18703E-001	5.08441E-009	0.00000E+000	3.20000E-001	6.95076E-004	7	...........	-327.63
	162	3.26	3.22696E-001	5.17191E-009	0.00000E+000	3.24000E-001	7.11743E-004	7	...........	-327.63
	164	3.3	3.26697E-001	5.29692E-009	0.00000E+000	3.28000E-001	7.25910E-004	7	...........	-327.63
	166	3.34	3.30667E-001	5.49692E-009	0.00000E+000	3.32000E-001	7.14243E-004	7	...........	-327.63
	168	3.38	3.34643E-001	5.67610E-009	0.00000E+000	3.36000E-001	7.08410E-004	7	...........	-327.63
	170	3.42	3.38629E-001	5.51776E-009	0.00000E+000	3.40000E-001	6.91743E-004	7	...........	-327.63
	172	3.46	3.42617E-001	5.52609E-009	0.00000E+000	3.44000E-001	7.04243E-004	7	...........	-327.63
	174	3.5	3.46595E-001	5.67610E-009	0.00000E+000	3.48000E-001	6.91743E-004	7	...........	-327.63
	176	3.54	3.50599E-001	5.82610E-009	0.00000E+000	3.52000E-001	7.12576E-004	7	...........	-327.63
	178	3.58	3.54582E-001	5.70526E-009	0.00000E+000	3.56000E-001	7.03410E-004	7	...........	-327.63
	180	3.62	3.58548E-001	5.80110E-009	0.00000E+000	3.60000E-001	7.15076E-004	7	...........	-327.63
	182	3.66	3.62524E-001	6.14695E-009	0.00000E+000	3.64000E-001	7.10076E-004	7	...........	-327.63
	184	3.7	3.66500E-001	6.05528E-009	0.00000E+000	3.68000E-001	6.98410E-004	7	...........	-327.63
	186	3.74	3.70480E-001	6.04694E-009	0.00000E+000	3.72000E-001	7.06743E-004	7	...........	-327.63
	188	3.78	3.74468E-001	6.16778E-009	0.00000E+000	3.76000E-001	7.03410E-004	7	...........	-327.63
	190	3.82	3.78459E-001	6.35945E-009	0.00000E+000	3.80000E-001	6.98410E-004	7	...........	-327.63
	192	3.86	3.82439E-001	6.33029E-009	0.00000E+000	3.84000E-001	7.05076E-004	7	...........	-327.63
	194	3.9	3.86410E-001	6.53446E-009	0.00000E+000	3.88000E-001	7.22576E-004	7	...........	-327.63
	196	3.94	3.90401E-001	6.46779E-009	0.00000E+000	3.92000E-001	7.04243E-004	7	...........	-327.63
	198	3.98	3.94375E-001	6.51363E-009	0.00000E+000	3.96000E-001	7.00910E-004	7	...........	-327.63
	200	4.02	3.98344E-001	6.51363E-009	0.00000E+000	4.00000E-001	7.02576E-004	7	...........	-327.63
	202	4.06	4.02327E-001	6.58863E-009	0.00000E+000	4.04000E-001	7.01743E-004	7	...........	-327.63
	204	4.1	4.06319E-001	6.56363E-009	0.00000E+000	4.08000E-001	6.96743E-004	7	...........	-327.63
	206	4.14	4.10278E-001	6.68030E-009	0.00000E+000	4.12000E-001	6.98410E-004	7	...........	-327.63
	208	4.18	4.14258E-001	6.80531E-009	0.00000E+000	4.16000E-001	7.05910E-004	7	...........	-327.63
	210	4.22	4.18227E-001	6.67197E-009	0.00000E+000	4.20000E-001	6.97576E-004	7	...........	-327.63
	212	4.26	4.22213E-001	7.00531E-009	0.00000E+000	4.24000E-001	7.06743E-004	7	...........	-327.63
	214	4.3	4.26202E-001	7.10115E-009	0.00000E+000	4.28000E-001	7.02576E-004	7	...........	-327.63
	216	4.34	4.30187E-001	7.09282E-009	0.00000E+000	4.32000E-001	7.07576E-004	7	...........	-327.63
	218	4.38	4.34166E-001	7.22615E-009	0.00000E+000	4.36000E-001	6.96743E-004	7	...........	-327.63
	220	4.42	4.38130E-001	7.20532E-009	0.00000E+000	4.40000E-001	7.05076E-004	7	...........	-327.63
	222	4.46	4.42122E-001	7.38449E-009	0.00000E+000	4.44000E-001	7.01743E-004	7	...........	-327.63
	224	4.5	4.46112E-001	7.54700E-009	0.00000E+000	4.48000E-001	7.15076E-004	7	...........	-327.63
	226	4.54	4.50058E-001	7.63034E-009	0.00000E+000	4.52000E-001	7.04243E-004	7	...........	-327.63
	228	4.58	4.54062E-001	7.70951E-009	0.00000E+000	4.56000E-001	7.24243E-004	7	...........	-327.63
	230	4.62	4.58048E-001	7.68450E-009	0.00000E+000	4.60000E-001	6.98410E-004	7	...........	-327.63
	232	4.66	4.61998E-001	7.89701E-009	0.00000E+000	4.64000E-001	7.14243E-004	7	...........	-327.63
	234	4.7	4.65991E-001	7.73034E-009	0.00000E+000	4.68000E-001	7.05910E-004	7	...........	-327.63
	236	4.74	4.69973E-001	8.08452E-009	0.00000E+000	4.72000E-001	7.04243E-004	7	...........	-327.63
	238	4.78	4.73928E-001	8.07202E-009	0.00000E+000	4.76000E-001	7.03410E-004	7	...........	-327.63
	240	4.82	4.77930E-001	8.28869E-009	0.00000E+000	4.80000E-001	7.08410E-004	7	...........	-327.63
	242	4.86	4.81906E-001	8.27203E-009	0.00000E+000	4.84000E-001	7.05076E-004	7	...........	-327.63
	244	4.9	4.85874E-001	8.40953E-009	0.00000E+000	4.88000E-001	6.99243E-004	7	...........	-327.63
	246	4.94	4.89845E-001	8.52620E-009	0.00000E+000	4.92000E-001	7.12576E-004	7	...........	-327.63
	248	4.98	4.93838E-001	8.55954E-009	0.00000E+000	4.96000E-001	6.89243E-004	7	...........	-327.63
	250	5.02	4.97820E-001	8.78871E-009	0.00000E+000	5.00000E-001	7.00910E-004	7	...........	-327.63
	252	5.06	4.93806E-001	8.65538E-009	0.00000E+000	4.96000E-001	7.04243E-004	7	...........	-327.63
	254	5.1	4.89789E-001	8.89288E-009	0.00000E+000	4.92000E-001	6.98410E-004	7	...........	-327.63
	256	5.14	4.85788E-001	9.11372E-009	0.00000E+000	4.88000E-001	7.09243E-004	7	...........	-327.63
	258	5.18	4.81778E-001	9.27206E-009	0.00000E+000	4.84000E-001	7.02576E-004	7	...........	-327.63
	260	5.22	4.77773E-001	9.26790E-009	0.00000E+000	4.80000E-001	7.12576E-004	7	...........	-327.63
	262	5.26	4.73745E-001	9.47207E-009	0.00000E+000	4.76000E-001	7.05910E-004	7	...........	-327.63
	264	5.3	4.69755E-001	9.30540E-009	0.00000E+000	4.72000E-001	7.05076E-004	7	...........	-327.63
	266	5.34	4.65730E-001	9.32623E-009	0.00000E+000	4.68000E-001	6.95076E-004	7	...........	-327.63
	268	5.38	4.61731E-001	9.35957E-009	0.00000E+000	4.64000E-001	7.06743E-004	7	...........	-327.63
	270	5.42	4.57737E-001	9.38040E-009	0.00000E+000	4.60000E-001	6.95910E-004	7	...........	-327.63
	272	5.46	4.53728E-001	9.53874E-009	0.00000E+000	4.56000E-001	7.04243E-004	7	...........	-327.63
	274	5.5	4.49705E-001	9.59708E-009	0.00000E+000	4.52000E-001	7.06743E-004	7	...........	-327.63
	276	5.54	4.45708E-001	9.50957E-009	0.00000E+000	4.48000E-001	7.05910E-004	7	...........	-327.63
	278	5.58	4.41704E-001	9.67625E-009	0.00000E+000	4.44000E-001	7.04243E-004	7	...........	-327.63
	280	5.62	4.37693E-001	9.65125E-009	0.00000E+000	4.40000E-001	6.93410E-004	7	...........	-327.63
	282	5.66	4.33685E-001	9.78458E-009	0.00000E+000	4.36000E-001	7.03410E-004	7	...........	-327.63
	284	5.7	4.29688E-001	9.83459E-009	0.00000E+000	4.32000E-001	7.16743E-004	7	...........	-327.63
	286	5.74	4.25691E-001	9.98042E-009	0.00000E+000	4.28000E-001	7.16743E-004	7	...........	-327.63
	288	5.78	4.21670E-001	9.87625E-009	0.00000E+000	4.24000E-001	7.03410E-004	7	...........	-327.63
	290	5.82	4.17673E-001	9.95959E-009	0.00000E+000	4.20000E-001	7.12576E-004	7	...........	-327.63
	292	5.86	4.13650E-001	1.02513E-008	0.00000E+000	4.16000E-001	6.90910E-004	7	...........	-327.63
	294	5.9	4.09653E-001	1.02804E-008	0.00000E+000	4.12000E-001	7.05910E-004	7	...........	-327.63
	296	5.94	4.05681E-001	1.03179E-008	0.00000E+000	4.08000E-001	7.23410E-004	7	...........	-327.63
	298	5.98	4.01662E-001	1.03179E-008	0.00000E+000	4.04000E-001	6.99243E-004	7	...........	-327.63
	300	6.02	3.97661E-001	1.03721E-008	0.00000E+000	4.00000E-001	6.99243E-004	7	...........	-327.63
	302	6.06	3.93661E-001	1.06138E-008	0.00000E+000	3.96000E-001	7.10076E-004	7	...........	-327.63
	304	6.1	3.89666E-001	1.05221E-008	0.00000E+000	3.92000E-001	7.03410E-004	7	...........	-327.63
	306	6.14	3.85640E-001	1.07263E-008	0.00000E+000	3.88000E-001	7.03410E-004	7	...........	-327.63
	308	6.18	3.81657E-001	1.05888E-008	0.00000E+000	3.84000E-001	6.98410E-004	7	...........	-327.63
	310	6.22	3.77650E-001	1.08763E-008	0.00000E+000	3.80000E-001	7.00076E-004	7	...........	-327.63
	312	6.26	3.73635E-001	1.07180E-008	0.00000E+000	3.76000E-001	7.17576E-004	7	...........	-327.63
	314	6.3	3.69651E-001	1.10930E-008	0.00000E+000	3.72000E-001	7.05910E-004	7	...........	-327.63
	316	6.34	3.65636E-001	1.10596E-008	0.00000E+000	3.68000E-001	6.96743E-004	7	...........	-327.63
	318	6.38	3.61632E-001	1.11596E-008	0.00000E+000	3.64000E-001	7.07576E-004	7	...........	-327.63
	320	6.42	3.57648E-001	1.12096E-008	0.00000E+000	3.60000E-001	7.08410E-004	7	...........	-327.63
	322	6.46	3.53637E-001	1.12305E-008	0.00000E+000	3.56000E-001	7.07576E-004	7	...........	-327.63
	324	6.5	3.49629E-001	1.10930E-008	0.00000E+000	3.52000E-001	6.99243E-004	7	...........	-327.63
	326	6.54	3.45620E-001	1.12721E-008	0.00000E+000	3.48000E-001	6.95076E-004	7	...........	-327.63
	328	6.58	3.41626E-001	1.13430E-008	0.00000E+000	3.44000E-001	6.95076E-004	7	...........	-327.63
	330	6.62	3.37618E-001	1.13846E-008	0.00000E+000	3.40000E-001	6.98410E-004	7	...........	-327.63
	332	6.66	3.33616E-001	1.12888E-008	0.00000E+000	3.36000E-001	7.02576E-004	7	...........	-327.63
	334	6.7	3.29621E-001	1.13971E-008	0.00000E+000	3.32000E-001	7.09243E-004	7	...........	-327.63
	336	6.74	3.25624E-001	1.13555E-008	0.00000E+000	3.28000E-001	7.10076E-004	7	...........	-327.63
	338	6.78	3.21588E-001	1.14430E-008	0.00000E+000	3.24000E-001	7.04243E-004	7	...........	-327.63
	340	6.82	3.17604E-001	1.14096E-008	0.00000E+000	3.20000E-001	6.95076E-004	7	...........	-327.63
	342	6.86	3.13593E-001	1.16055E-008	0.00000E+000	3.16000E-001	7.03410E-004	7	...........	-327.63
	344	6.9	3.09595E-001	1.17222E-008	0.00000E+000	3.12000E-001	6.77576E-004	7	...........	-327.63
	346	6.94	3.05614E-001	1.17472E-008	0.00000E+000	3.08000E-001	7.14243E-004	7	...........	-327.63
	348	6.98	3.01598E-001	1.18888E-008	0.00000E+000	3.04000E-001	7.09243E-004	7	...........	-327.63
	350	7.02	2.97594E-001	1.17680E-008	0.00000E+000	3.00000E-001	7.00910E-004	7	...........	-327.63
	352	7.06	2.93585E-001	1.15680E-008	0.00000E+000	2.96000E-001	6.96743E-004	7	...........	-327.63
	354	7.1	2.89589E-001	1.18138E-008	0.00000E+000	2.92000E-001	6.98410E-004	7	...........	-327.63
	356	7.14	2.85590E-001	1.20055E-008	0.00000E+000	2.88000E-001	7.03410E-004	7	...........	-327.63
	358	7.18	2.81583E-001	1.20222E-008	0.00000E+000	2.84000E-001	7.20076E-004	7	...........	-327.63
	360	7.22	2.77570E-001	1.20055E-008	0.00000E+000	2.80000E-001	7.09243E-004	7	...........	-327.63
	362	7.26	2.73574E-001	1.21722E-008	0.00000E+000	2.76000E-001	6.97576E-004	7	...........	-327.63
	364	7.3	2.69557E-001	1.21263E-008	0.00000E+000	2.72000E-001	7.07576E-004	7	...........	-327.63
	366	7.34	2.65568E-001	1.22013E-008	0.00000E+000	2.68000E-001	6.95076E-004	7	...........	-327.63
	368	7.38	2.61549E-001	1.21930E-008	0.00000E+000	2.64000E-001	7.10910E-004	7	...........	-327.63
	370	7.42	2.57555E-001	1.24180E-008	0.00000E+000	2.60000E-001	6.92576E-004	7	...........	-327.63
	372	7.46	2.53576E-001	1.23972E-008	0.00000E+000	2.56000E-001	6.98410E-004	7	...........	-327.63
	374	7.5	2.49553E-001	1.23680E-008	0.00000E+000	2.52000E-001	6.98410E-004	7	...........	-327.63
	376	7.54	2.45547E-001	1.24305E-008	0.00000E+000	2.48000E-001	7.03410E-004	7	...........	-327.63
	378	7.58	2.41547E-001	1.25139E-008	0.00000E+000	2.44000E-001	7.01743E-004	7	...........	-327.63
	380	7.62	2.37548E-001	1.24889E-008	0.00000E+000	2.40000E-001	7.04243E-004	7	...........	-327.63
	382	7.66	2.33543E-001	1.25347E-008	0.00000E+000	2.36000E-001	7.04243E-004	7	...........	-327.63
	384	7.7	2.29550E-001	1.24013E-008	0.00000E+000	2.32000E-001	7.15910E-004	7	...........	-327.63
	386	7.74	2.25540E-001	1.25097E-008	0.00000E+000	2.28000E-001	7.10910E-004	7	...........	-327.63
	388	7.78	2.21552E-001	1.27430E-008	0.00000E+000	2.24000E-001	7.03410E-004	7	...........	-327.63
	390	7.82	2.17527E-001	1.25472E-008	0.00000E+000	2.20000E-001	6.99243E-004	7	...........	-327.63
	392	7.86	2.13531E-001	1.27597E-008	0.00000E+000	2.16000E-001	7.10910E-004	7	...........	-327.63
	394	7.9	2.09539E-001	1.25764E-008	0.00000E+000	2.12000E-001	6.87576E-004	7	...........	-327.63
	396	7.94	2.05532E-001	1.28930E-008	0.00000E+000	2.08000E-001	7.06743E-004	7	...........	-327.63
	398	7.98	2.01548E-001	1.27639E-008	0.00000E+000	2.04000E-001	7.01743E-004	7	...........	-327.63
	400	8.02	1.97538E-001	1.28222E-008	0.00000E+000	2.00000E-001	7.14243E-004	7	...........	-327.63
	402	8.06	1.93520E-001	1.27430E-008	0.00000E+000	1.96000E-001	6.91743E-004	7	...........	-327.63
	404	8.1	1.89523E-001	1.33014E-008	0.00000E+000	1.92000E-001	6.96743E-004	7	...........	-327.63
	406	8.14	1.85519E-001	1.29264E-008	0.00000E+000	1.88000E-001	7.04243E-004	7	...........	-327.63
	408	8.18	1.81522E-001	1.32222E-008	0.00000E+000	1.84000E-001	7.05910E-004	7	...........	-327.63
	410	8.22	1.77536E-001	1.30847E-008	0.00000E+000	1.80000E-001	7.15076E-004	7	...........	-327.63
	412	8.26	1.73518E-001	1.32764E-008	0.00000E+000	1.76000E-001	7.10910E-004	7	...........	-327.63
	414	8.3	1.69513E-001	1.31805E-008	0.00000E+000	1.72000E-001	7.14243E-004	7	...........	-327.63
	416	8.34	1.65528E-001	1.32472E-008	0.00000E+000	1.68000E-001	7.05076E-004	7	...........	-327.63
	418	8.38	1.61514E-001	1.33222E-008	0.00000E+000	1.64000E-001	6.98410E-004	7	...........	-327.63
	420	8.42	1.57519E-001	1.33597E-008	0.00000E+000	1.60000E-001	7.02576E-004	7	...........	-327.63
	422	8.46	1.53523E-001	1.33055E-008	0.00000E+000	1.56000E-001	7.10076E-004	7	...........	-327.63
	424	8.5	1.49523E-001	1.34514E-008	0.00000E+000	1.52000E-001	7.01743E-004	7	...........	-327.63
	426	8.54	1.45518E-001	1.33180E-008	0.00000E+000	1.48000E-001	7.05910E-004	7	...........	-327.63
	428	8.58	1.41513E-001	1.31639E-008	0.00000E+000	1.44000E-001	7.19243E-004	7	...........	-327.63
	430	8.62	1.37523E-001	1.33097E-008	0.00000E+000	1.40000E-001	7.00910E-004	7	...........	-327.63
	432	8.66	1.33528E-001	1.31597E-008	0.00000E+000	1.36000E-001	6.83410E-004	7	...........	-327.63
	434	8.7	1.29497E-001	1.32764E-008	0.00000E+000	1.32000E-001	6.88410E-004	7	...........	-327.63
	436	8.74	1.25522E-001	1.33347E-008	0.00000E+000	1.28000E-001	7.16743E-004	7	...........	-327.63
	438	8.78	1.21527E-001	1.33722E-008	0.00000E+000	1.24000E-001	7.07576E-004	7	...........	-327.63
	440	8.82	1.17505E-001	1.34347E-008	0.00000E+000	1.20000E-001	6.96743E-004	7	...........	-327.63
	442	8.86	1.13513E-001	1.33430E-008	0.00000E+000	1.16000E-001	6.98410E-004	7	...........	-327.63
	444	8.9	1.09519E-001	1.34389E-008	0.00000E+000	1.12000E-001	7.08410E-004	7	...........	-327.63
	446	8.94	1.05511E-001	1.33180E-008	0.00000E+000	1.08000E-001	7.00076E-004	7	...........	-327.63
	448	8.98	1.01533E-001	1.34431E-008	0.00000E+000	1.04000E-001	7.28410E-004	7	...........	-327.63
	450	9.02	9.75272E-002	1.36722E-008	0.00000E+000	1.00000E-001	7.13410E-004	7	...........	-327.63
	452	9.06	9.35159E-002	1.37056E-008	0.00000E+000	9.60000E-002	7.05076E-004	7	...........	-327.63
	454	9.1	8.95201E-002	1.37764E-008	0.00000E+000	9.20000E-002	7.03410E-004	7	...........	-327.63
	456	9.14	8.55272E-002	1.38347E-008	0.00000E+000	8.80000E-002	6.98410E-004	7	...........	-327.63
	458	9.18	8.15180E-002	1.37639E-008	0.00000E+000	8.40000E-002	6.93410E-004	7	...........	-327.63
	460	9.22	7.75118E-002	1.37597E-008	0.00000E+000	8.00000E-002	7.01743E-004	7	...........	-327.63
	462	9.26	7.35134E-002	1.38347E-008	0.00000E+000	7.60000E-002	7.04243E-004	7	...........	-327.63
	464	9.3	6.95113E-002	1.39722E-008	0.00000E+000	7.20000E-002	7.02576E-004	7	...........	-327.63
	466	9.34	6.54951E-002	1.39222E-008	0.00000E+000	6.80000E-002	7.12576E-004	7	...........	-327.63
	468	9.38	6.15080E-002	1.41264E-008	0.00000E+000	6.40000E-002	7.04243E-004	7	...........	-327.63
	470	9.42	5.75043E-002	1.41972E-008	0.00000E+000	6.00000E-002	7.00076E-004	7	...........	-327.63
	472	9.46	5.34922E-002	1.42306E-008	0.00000E+000	5.60000E-002	7.02576E-004	7	...........	-327.63
	474	9.5	4.95343E-002	1.42389E-008	0.00000E+000	5.20000E-002	7.15076E-004	7	...........	-327.63
	476	9.54	4.55118E-002	1.42389E-008	0.00000E+000	4.80000E-002	7.04243E-004	7	...........	-327.63
	478	9.58	4.14993E-002	1.44181E-008	0.00000E+000	4.40000E-002	7.04243E-004	7	...........	-327.63
	480	9.62	3.75051E-002	1.44056E-008	0.00000E+000	4.00000E-002	7.04243E-004	7	...........	-327.63
	482	9.66	3.35072E-002	1.43098E-008	0.00000E+000	3.60000E-002	6.86743E-004	7	...........	-327.63
	484	9.7	2.95088E-002	1.45431E-008	0.00000E+000	3.20000E-002	7.11743E-004	7	...........	-327.63
	486	9.74	2.55051E-002	1.45139E-008	0.00000E+000	2.80000E-002	7.07576E-004	7	...........	-327.63
	488	9.78	2.15072E-002	1.45639E-008	0.00000E+000	2.40000E-002	6.99243E-004	7	...........	-327.63
	490	9.82	1.75034E-002	1.46306E-008	0.00000E+000	2.00000E-002	7.10076E-004	7	...........	-327.63
	492	9.86	1.34847E-002	1.46348E-008	0.00000E+000	1.60000E-002	7.08410E-004	7	...........	-327.63
	494	9.9	9.48259E-003	1.47931E-008	0.00000E+000	1.20000E-002	7.05076E-004	7	...........	-327.63
	496	9.94	5.48759E-003	1.47306E-008	0.00000E+000	8.00000E-003	7.02576E-004	7	...........	-327.63
	498	9.98	1.48801E-003	1.47098E-008	0.00000E+000	4.00000E-003	6.85910E-004	7	...........	-327.63
	500	10.02	-2.53574E-003	1.48473E-008	0.00000E+000	0.00000E+000	7.15910E-004	7	...........	-327.63
	502	10.06	-6.54408E-003	1.48181E-008	0.00000E+000	-4.00000E-003	7.04243E-004	7	...........	-327.63
	504	10.1	-1.05482E-002	1.47181E-008	0.00000E+000	-8.00000E-003	7.05076E-004	7	...........	-327.63
	506	10.14	-1.45387E-002	1.47889E-008	0.00000E+000	-1.20000E-002	7.05910E-004	7	...........	-327.63
	508	10.18	-1.85495E-002	1.45098E-008	0.00000E+000	-1.60000E-002	7.14243E-004	7	...........	-327.63
	510	10.22	-2.25395E-002	1.46848E-008	0.00000E+000	-2.00000E-002	6.98410E-004	7	...........	-327.63
	512	10.26	-2.65537E-002	1.47556E-008	0.00000E+000	-2.40000E-002	7.15076E-004	7	...........	-327.63
	514	10.3	-3.05416E-002	1.47306E-008	0.00000E+000	-2.80000E-002	6.90910E-004	7	...........	-327.63
	516	10.34	-3.45645E-002	1.46389E-008	0.00000E+000	-3.20000E-002	7.02576E-004	7	...........	-327.63
	518	10.38	-3.85474E-002	1.48098E-008	0.00000E+000	-3.60000E-002	7.06743E-004	7	...........	-327.63
	520	10.42	-4.25612E-002	1.48514E-008	0.00000E+000	-4.00000E-002	7.06743E-004	7	...........	-327.63
	522	10.46	-4.65441E-002	1.45514E-008	0.00000E+000	-4.40000E-002	6.95076E-004	7	...........	-327.63
	524	10.5	-5.05762E-002	1.46723E-008	0.00000E+000	-4.80000E-002	7.15910E-004	7	...........	-327.63
	526	10.54	-5.45507E-002	1.47806E-008	0.00000E+000	-5.20000E-002	6.93410E-004	7	...........	-327.63
	528	10.58	-5.85482E-002	1.48681E-008	0.00000E+000	-5.60000E-002	6.99243E-004	7	...........	-327.63
	530	10.62	-6.25524E-002	1.47056E-008	0.00000E+000	-6.00000E-002	6.80910E-004	7	...........	-327.63
	532	10.66	-6.65449E-002	1.49014E-008	0.00000E+000	-6.40000E-002	7.07576E-004	7	...........	-327.63
	534	10.7	-7.05487E-002	1.49514E-008	0.00000E+000	-6.80000E-002	7.08410E-004	7	...........	-327.63
	536	10.74	-7.45395E-002	1.48181E-008	0.00000E+000	-7.20000E-002	6.98410E-004	7	...........	-327.63
	538	10.78	-7.85466E-002	1.49014E-008	0.00000E+000	-7.60000E-002	7.00076E-004	7	...........	-327.63
	540	10.82	-8.25420E-002	1.50473E-008	0.00000E+000	-8.00000E-002	7.00076E-004	7	...........	-327.63
	542	10.86	-8.65699E-002	1.49514E-008	0.00000E+000	-8.40000E-002	7.06743E-004	7	...........	-327.63
	544	10.9	-9.05382E-002	1.48181E-008	0.00000E+000	-8.80000E-002	7.10910E-004	7	...........	-327.63
	546	10.94	-9.45399E-002	1.50806E-008	0.00000E+000	-9.20000E-002	6.96743E-004	7	...........	-327.63
	548	10.98	-9.85437E-002	1.50556E-008	0.00000E+000	-9.60000E-002	6.89243E-004	7	...........	-327.63
	550	11.02	-1.02527E-001	1.50264E-008	0.00000E+000	-1.00000E-001	7.25076E-004	7	...........	-327.63
	552	11.06	-1.06510E-001	1.51723E-008	0.00000E+000	-1.04000E-001	7.01743E-004	7	...........	-327.63
	554	11.1	-1.10518E-001	1.51640E-008	0.00000E+000	-1.08000E-001	7.09243E-004	7	...........	-327.63
	556	11.14	-1.14524E-001	1.53348E-008	0.00000E+000	-1.12000E-001	6.91743E-004	7	...........	-327.63
	558	11.18	-1.18504E-001	1.54140E-008	0.00000E+000	-1.16000E-001	7.09243E-004	7	...........	-327.63
	560	11.22	-1.22503E-001	1.53931E-008	0.00000E+000	-1.20000E-001	7.01743E-004	7	...........	-327.63
	562	11.26	-1.26512E-001	1.54348E-008	0.00000E+000	-1.24000E-001	7.07576E-004	7	...........	-327.63
	564	11.3	-1.30504E-001	1.54640E-008	0.00000E+000	-1.28000E-001	7.00076E-004	7	...........	-327.63
	566	11.34	-1.34487E-001	1.55598E-008	0.00000E+000	-1.32000E-001	7.15910E-004	7	...........	-327.63
	568	11.38	-1.38495E-001	1.55765E-008	0.00000E+000	-1.36000E-001	7.05910E-004	7	...........	-327.63
	570	11.42	-1.42490E-001	1.56015E-008	0.00000E+000	-1.40000E-001	6.98410E-004	7	...........	-327.63
	572	11.46	-1.46481E-001	1.55681E-008	0.00000E+000	-1.44000E-001	6.98410E-004	7	...........	-327.63
	574	11.5	-1.50479E-001	1.56348E-008	0.00000E+000	-1.48000E-001	7.22576E-004	7	...........	-327.63
	576	11.54	-1.54439E-001	1.57015E-008	0.00000E+000	-1.52000E-001	7.05076E-004	7	...........	-327.63
	578	11.58	-1.58465E-001	1.58140E-008	0.00000E+000	-1.56000E-001	7.13410E-004	7	...........	-327.63
	580	11.62	-1.62457E-001	1.57765E-008	0.00000E+000	-1.60000E-001	7.10076E-004	7	...........	-327.63
	582	11.66	-1.66455E-001	1.56806E-008	0.00000E+000	-1.64000E-001	7.07576E-004	7	...........	-327.63
	584	11.7	-1.70448E-001	1.60181E-008	0.00000E+000	-1.68000E-001	7.11743E-004	7	...........	-327.63
	586	11.74	-1.74431E-001	1.58223E-008	0.00000E+000	-1.72000E-001	7.00076E-004	7	...........	-327.63
	588	11.78	-1.78448E-001	1.58098E-008	0.00000E+000	-1.76000E-001	6.99243E-004	7	...........	-327.63
	590	11.82	-1.82432E-001	1.60265E-008	0.00000E+000	-1.80000E-001	7.11743E-004	7	...........	-327.63
	592	11.86	-1.86429E-001	1.58765E-008	0.00000E+000	-1.84000E-001	7.15910E-004	7	...........	-327.63
	594	11.9	-1.90437E-001	1.57931E-008	0.00000E+000	-1.88000E-001	7.13410E-004	7	...........	-327.63
	596	11.94	-1.94417E-001	1.61807E-008	0.00000E+000	-1.92000E-001	6.83410E-004	7	...........	-327.63
	598	11.98	-1.98428E-001	1.61223E-008	0.00000E+000	-1.96000E-001	7.12576E-004	7	...........	-327.63
	600	12.02	-2.02422E-001	1.61015E-008	0.00000E+000	-2.00000E-001	7.10076E-004	7	...........	-327.63
	602	12.06	-2.06387E-001	1.61473E-008	0.00000E+000	-2.04000E-001	7.15910E-004	7	...........	-327.63
	604	12.1	-2.10387E-001	1.60973E-008	0.00000E+000	-2.08000E-001	7.09243E-004	7	...........	-327.63
	606	12.14	-2.14397E-001	1.60765E-008	0.00000E+000	-2.12000E-001	6.99243E-004	7	...........	-327.63
	608	12.18	-2.18397E-001	1.60432E-008	0.00000E+000	-2.16000E-001	7.08410E-004	7	...........	-327.63
	610	12.22	-2.22374E-001	1.63098E-008	0.00000E+000	-2.20000E-001	7.12576E-004	7	...........	-327.63
	612	12.26	-2.26386E-001	1.63098E-008	0.00000E+000	-2.24000E-001	7.14243E-004	7	...........	-327.63
	614	12.3	-2.30376E-001	1.61890E-008	0.00000E+000	-2.28000E-001	7.10076E-004	7	...........	-327.63
	616	12.34	-2.34376E-001	1.61223E-008	0.00000E+000	-2.32000E-001	7.25076E-004	7	...........	-327.63
	618	12.38	-2.38375E-001	1.61598E-008	0.00000E+000	-2.36000E-001	7.05076E-004	7	...........	-327.63
	620	12.42	-2.42374E-001	1.61348E-008	0.00000E+000	-2.40000E-001	7.17576E-004	7	...........	-327.63
	622	12.46	-2.46363E-001	1.62265E-008	0.00000E+000	-2.44000E-001	7.05910E-004	7	...........	-327.63
	624	12.5	-2.50365E-001	1.62223E-008	0.00000E+000	-2.48000E-001	7.22576E-004	7	...........	-327.63
	626	12.54	-2.54351E-001	1.64057E-008	0.00000E+000	-2.52000E-001	7.05910E-004	7	...........	-327.63
	628	12.58	-2.58327E-001	1.64265E-008	0.00000E+000	-2.56000E-001	7.16743E-004	7	...........	-327.63
	630	12.62	-2.62339E-001	1.65640E-008	0.00000E+000	-2.60000E-001	7.10910E-004	7	...........	-327.63
	632	12.66	-2.66360E-001	1.64098E-008	0.00000E+000	-2.64000E-001	7.10076E-004	7	...........	-327.63
	634	12.7	-2.70340E-001	1.66098E-008	0.00000E+000	-2.68000E-001	6.95910E-004	7	...........	-327.63
	636	12.74	-2.74344E-001	1.65057E-008	0.00000E+000	-2.72000E-001	7.01743E-004	7	...........	-327.63
	638	12.78	-2.78337E-001	1.66098E-008	0.00000E+000	-2.76000E-001	7.10910E-004	7	...........	-327.63
	640	12.82	-2.82319E-001	1.66723E-008	0.00000E+000	-2.80000E-001	7.20910E-004	7	...........	-327.63
	642	12.86	-2.86332E-001	1.67140E-008	0.00000E+000	-2.84000E-001	7.00076E-004	7	...........	-327.63
	644	12.9	-2.90334E-001	1.66932E-008	0.00000E+000	-2.88000E-001	7.15076E-004	7	...........	-327.63
	646	12.94	-2.94328E-001	1.67765E-008	0.00000E+000	-2.92000E-001	7.04243E-004	7	...........	-327.63
	648	12.98	-2.98329E-001	1.66098E-008	0.00000E+000	-2.96000E-001	6.95076E-004	7	...........	-327.63
	650	13.02	-3.02320E-001	1.67015E-008	0.00000E+000	-3.00000E-001	7.10076E-004	7	...........	-327.63
	652	13.06	-3.06341E-001	1.66015E-008	0.00000E+000	-3.04000E-001	7.10076E-004	7	...........	-327.63
	654	13.1	-3.10303E-001	1.67473E-008	0.00000E+000	-3.08000E-001	7.13410E-004	7	...........	-327.63
	656	13.14	-3.14295E-001	1.66723E-008	0.00000E+000	-3.12000E-001	7.09243E-004	7	...........	-327.63
	658	13.18	-3.18302E-001	1.68015E-008	0.00000E+000	-3.16000E-001	7.03410E-004	7	...........	-327.63
	660	13.22	-3.22280E-001	1.68098E-008	0.00000E+000	-3.20000E-001	7.09243E-004	7	...........	-327.63
	662	13.26	-3.26278E-001	1.69348E-008	0.00000E+000	-3.24000E-001	7.01743E-004	7	...........	-327.63
	664	13.3	-3.30282E-001	1.69724E-008	0.00000E+000	-3.28000E-001	7.15910E-004	7	...........	-327.63
	666	13.34	-3.34275E-001	1.71349E-008	0.00000E+000	-3.32000E-001	7.03410E-004	7	...........	-327.63
	668	13.38	-3.38280E-001	1.70015E-008	0.00000E+000	-3.36000E-001	7.09243E-004	7	...........	-327.63
	670	13.42	-3.42272E-001	1.70182E-008	0.00000E+000	-3.40000E-001	7.05076E-004	7	...........	-327.63
	672	13.46	-3.46255E-001	1.70432E-008	0.00000E+000	-3.44000E-001	7.03410E-004	7	...........	-327.63
	674	13.5	-3.50244E-001	1.67973E-008	0.00000E+000	-3.48000E-001	6.90910E-004	7	...........	-327.63
	676	13.54	-3.54251E-001	1.68140E-008	0.00000E+000	-3.52000E-001	6.95076E-004	7	...........	-327.63
	678	13.58	-3.58226E-001	1.69432E-008	0.00000E+000	-3.56000E-001	7.19243E-004	7	...........	-327.63
	680	13.62	-3.62218E-001	1.69599E-008	0.00000E+000	-3.60000E-001	7.10076E-004	7	...........	-327.63
	682	13.66	-3.66218E-001	1.67140E-008	0.00000E+000	-3.64000E-001	7.11743E-004	7	...........	-327.63
	684	13.7	-3.70231E-001	1.68598E-008	0.00000E+000	-3.68000E-001	7.11743E-004	7	...........	-327.63
	686	13.74	-3.74199E-001	1.71432E-008	0.00000E+000	-3.72000E-001	7.19243E-004	7	...........	-327.63
	688	13.78	-3.78198E-001	1.68515E-008	0.00000E+000	-3.76000E-001	7.10076E-004	7	...........	-327.63
	690	13.82	-3.82199E-001	1.70640E-008	0.00000E+000	-3.80000E-001	7.07576E-004	7	...........	-327.63
	692	13.86	-3.86169E-001	1.69057E-008	0.00000E+000	-3.84000E-001	7.14243E-004	7	...........	-327.63
	694	13.9	-3.90168E-001	1.68598E-008	0.00000E+000	-3.88000E-001	7.10076E-004	7	...........	-327.63
	696	13.94	-3.94175E-001	1.69724E-008	0.00000E+000	-3.92000E-001	7.09243E-004	7	...........	-327.63
	698	13.98	-3.98147E-001	1.68265E-008	0.00000E+000	-3.96000E-001	7.10910E-004	7	...........	-327.63
	700	14.02	-4.02149E-001	1.66598E-008	0.00000E+000	-4.00000E-001	7.01743E-004	7	...........	-327.63
	702	14.06	-4.06145E-001	1.67765E-008	0.00000E+000	-4.04000E-001	7.18410E-004	7	...........	-327.63
	704	14.1	-4.10102E-001	1.67640E-008	0.00000E+000	-4.08000E-001	7.12576E-004	7	...........	-327.63
	706	14.14	-4.14101E-001	1.67557E-008	0.00000E+000	-4.12000E-001	7.09243E-004	7	...........	-327.63
	708	14.18	-4.18102E-001	1.67390E-008	0.00000E+000	-4.16000E-001	7.01743E-004	7	...........	-327.63
	710	14.22	-4.22086E-001	1.68098E-008	0.00000E+000	-4.20000E-001	7.09243E-004	7	...........	-327.63
	712	14.26	-4.26088E-001	1.66973E-008	0.00000E+000	-4.24000E-001	6.95910E-004	7	...........	-327.63
	714	14.3	-4.30073E-001	1.67015E-008	0.00000E+000	-4.28000E-001	7.00910E-004	7	...........	-327.63
	716	14.34	-4.34059E-001	1.65848E-008	0.00000E+000	-4.32000E-001	7.08410E-004	7	...........	-327.63
	718	14.38	-4.38061E-001	1.63848E-008	0.00000E+000	-4.36000E-001	7.10076E-004	7	...........	-327.63
	720	14.42	-4.42049E-001	1.65432E-008	0.00000E+000	-4.40000E-001	7.14243E-004	7	...........	-327.63
	722	14.46	-4.46046E-001	1.65723E-008	0.00000E+000	-4.44000E-001	7.04243E-004	7	...........	-327.63
	724	14.5	-4.50030E-001	1.65348E-008	0.00000E+000	-4.48000E-001	7.01743E-004	7	...........	-327.63
	726	14.54	-4.54019E-001	1.65640E-008	0.00000E+000	-4.52000E-001	7.23410E-004	7	...........	-327.63
	728	14.58	-4.58015E-001	1.64265E-008	0.00000E+000	-4.56000E-001	6.89243E-004	7	...........	-327.63
	730	14.62	-4.61982E-001	1.63765E-008	0.00000E+000	-4.60000E-001	7.15076E-004	7	...........	-327.63
	732	14.66	-4.65986E-001	1.63098E-008	0.00000E+000	-4.64000E-001	7.07576E-004	7	...........	-327.63
	734	14.7	-4.69977E-001	1.64098E-008	0.00000E+000	-4.68000E-001	7.10076E-004	7	...........	-327.63
	736	14.74	-4.73969E-001	1.63640E-008	0.00000E+000	-4.72000E-001	7.10076E-004	7	...........	-327.63
	738	14.78	-4.77956E-001	1.64057E-008	0.00000E+000	-4.76000E-001	7.01743E-004	7	...........	-327.63
	740	14.82	-4.81949E-001	1.63890E-008	0.00000E+000	-4.80000E-001	6.98410E-004	7	...........	-327.63
	742	14.86	-4.85959E-001	1.62307E-008	0.00000E+000	-4.84000E-001	7.15910E-004	7	...........	-327.63
	744	14.9	-4.89929E-001	1.61973E-008	0.00000E+000	-4.88000E-001	7.06743E-004	7	...........	-327.63
	746	14.94	-4.93919E-001	1.60265E-008	0.00000E+000	-4.92000E-001	7.16743E-004	7	...........	-327.63
	748	14.98	-4.97933E-001	1.62973E-008	0.00000E+000	-4.96000E-001	7.02576E-004	7	...........	-327.63
	750	15.02	-5.01910E-001	1.62515E-008	0.00000E+000	-5.00000E-001	7.07576E-004	7	...........	-327.63
CURVE2	TABLE
	Pt	T	Vf	Im	Vu	Sig	Ach	IERange	Over	Temp
	#	s	V vs. Ref.	A	V	V	V	#	bits	deg C
	751	15.04	-4.99909E-001	1.60640E-008	0.00000E+000	-4.98000E-001	6.23410E-004	7	...........	-327.63
	753	15.08	-4.95902E-001	1.61723E-008	0.00000E+000	-4.94000E-001	6.22576E-004	7	...........	-327.63
	755	15.12	-4.91907E-001	1.61932E-008	0.00000E+000	-4.90000E-001	6.13410E-004	7	...........	-327.63
	757	15.16	-4.87908E-001	1.62015E-008	0.00000E+000	-4.86000E-001	6.35910E-004	7	...........	-327.63
	759	15.2	-4.83928E-001	1.63057E-008	0.00000E+000	-4.82000E-001	6.20910E-004	7	...........	-327.63
	761	15.24	-4.79923E-001	1.61557E-008	0.00000E+000	-4.78000E-001	6.29243E-004	7	...........	-327.63
	763	15.28	-4.75918E-001	1.60806E-008	0.00000E+000	-4.74000E-001	6.19243E-004	7	...........	-327.63
[...]
	2803	56.08	-3.95814E-001	1.60473E-008	0.00000E+000	-3.94000E-001	4.34243E-004	7	...........	-327.63
	2804	56.1	-3.93804E-001	1.60932E-008	0.00000E+000	-3.92000E-001	4.18410E-004	7	...........	-327.63
	2805	56.12	-3.91781E-001	1.60640E-008	0.00000E+000	-3.90000E-001	4.20076E-004	7	...........	-327.63
	2806	56.14	-3.89794E-001	1.60140E-008	0.00000E+000	-3.88000E-001	4.08410E-004	7	...........	-327.63
	2807	56.16	-3.87805E-001	1.59973E-008	0.00000E+000	-3.86000E-001	4.21743E-004	7	...........	-327.63
	2808	56.18	-3.85800E-001	1.58890E-008	0.00000E+000	-3.84000E-001	4.25910E-004	7	...........	-327.63
	2809	56.2	-3.83797E-001	1.59848E-008	0.00000E+000	-3.82000E-001	4.36743E-004	7	...........	-327.63
	2810	56.22	-3.81810E-001	1.59723E-008	0.00000E+000	-3.80000E-001	4.15076E-004	7	...........	-327.63
	2811	56.24	-3.79814E-001	1.60765E-008	0.00000E+000	-3.78000E-001	4.33410E-004	7	...........	-327.63
	2812	56.26	-3.77807E-001	1.58890E-008	0.00000E+000	-3.76000E-001	4.26743E-004	7	...........	-327.63
	2813	56.28	-3.75805E-001	1.59473E-008	0.00000E+000	-3.74000E-001	4.27576E-004	7	...........	-327.63
	2814	56.3	-3.73814E-001	1.59306E-008	0.00000E+000	-3.72000E-001	4.30910E-004	7	...........	-327.63
	2815	56.32	-3.71814E-001	1.58556E-008	0.00000E+000	-3.70000E-001	4.18410E-004	7	...........	-327.63
	2816	56.34	-3.69827E-001	1.58473E-008	0.00000E+000	-3.68000E-001	4.25910E-004	7	...........	-327.63
	2817	56.36	-3.67827E-001	1.58765E-008	0.00000E+000	-3.66000E-001	4.20076E-004	7	...........	-327.63
	2818	56.38	-3.65824E-001	1.59681E-008	0.00000E+000	-3.64000E-001	4.15910E-004	7	...........	-327.63
	2819	56.4	-3.63818E-001	1.61390E-008	0.00000E+000	-3.62000E-001	4.20910E-004	7	...........	-327.63
	2820	56.42	-3.61835E-001	1.60556E-008	0.00000E+000	-3.60000E-001	4.16743E-004	7	...........	-327.63
	2821	56.44	-3.59808E-001	1.60181E-008	0.00000E+000	-3.58000E-001	4.32576E-004	7	...........	-327.63
	2822	56.46	-3.57844E-001	1.60765E-008	0.00000E+000	-3.56000E-001	4.21743E-004	7	...........	-327.63
	2823	56.48	-3.55838E-001	1.61598E-008	0.00000E+000	-3.54000E-001	4.35910E-004	7	...........	-327.63
	2824	56.5	-3.53841E-001	1.59515E-008	0.00000E+000	-3.52000E-001	4.13410E-004	7	...........	-327.63
	2825	56.52	-3.51832E-001	1.59015E-008	0.00000E+000	-3.50000E-001	4.24243E-004	7	...........	-327.63
	2826	56.54	-3.49837E-001	1.61723E-008	0.00000E+000	-3.48000E-001	4.15910E-004	7	...........	-327.63
	2827	56.56	-3.47854E-001	1.60473E-008	0.00000E+000	-3.46000E-001	4.33410E-004	7	...........	-327.63
	2828	56.58	-3.45852E-001	1.60515E-008	0.00000E+000	-3.44000E-001	4.26743E-004	7	...........	-327.63
	2829	56.6	-3.43852E-001	1.59056E-008	0.00000E+000	-3.42000E-001	4.25910E-004	7	...........	-327.63
	2830	56.62	-3.41852E-001	1.58265E-008	0.00000E+000	-3.40000E-001	4.19243E-004	7	...........	-327.63
	2831	56.64	-3.39843E-001	1.57098E-008	0.00000E+000	-3.38000E-001	4.31743E-004	7	...........	-327.63
	2832	56.66	-3.37859E-001	1.57015E-008	0.00000E+000	-3.36000E-001	4.35076E-004	7	...........	-327.63
	2833	56.68	-3.35850E-001	1.57890E-008	0.00000E+000	-3.34000E-001	4.14243E-004	7	...........	-327.63
	2834	56.7	-3.33850E-001	1.58098E-008	0.00000E+000	-3.32000E-001	4.17576E-004	7	...........	-327.63
	2835	56.72	-3.31863E-001	1.58556E-008	0.00000E+000	-3.30000E-001	4.43410E-004	7	...........	-327.63
	2836	56.74	-3.29874E-001	1.58223E-008	0.00000E+000	-3.28000E-001	4.16743E-004	7	...........	-327.63
	2837	56.76	-3.27868E-001	1.57598E-008	0.00000E+000	-3.26000E-001	4.34243E-004	7	...........	-327.63
	2838	56.78	-3.25865E-001	1.59431E-008	0.00000E+000	-3.24000E-001	4.28410E-004	7	...........	-327.63
	2839	56.8	-3.23864E-001	1.57015E-008	0.00000E+000	-3.22000E-001	4.23410E-004	7	...........	-327.63
	2840	56.82	-3.21872E-001	1.55890E-008	0.00000E+000	-3.20000E-001	4.30076E-004	7	...........	-327.63
	2841	56.84	-3.19889E-001	1.59306E-008	0.00000E+000	-3.18000E-001	4.36743E-004	7	...........	-327.63
	2842	56.86	-3.17894E-001	1.58765E-008	0.00000E+000	-3.16000E-001	4.20076E-004	7	...........	-327.63
	2843	56.88	-3.15862E-001	1.59515E-008	0.00000E+000	-3.14000E-001	4.29243E-004	7	...........	-327.63
	2844	56.9	-3.13893E-001	1.59056E-008	0.00000E+000	-3.12000E-001	4.18410E-004	7	...........	-327.63
	2845	56.92	-3.11882E-001	1.59056E-008	0.00000E+000	-3.10000E-001	4.30076E-004	7	...........	-327.63
	2846	56.94	-3.09872E-001	1.58598E-008	0.00000E+000	-3.08000E-001	4.18410E-004	7	...........	-327.63
	2847	56.96	-3.07877E-001	1.57265E-008	0.00000E+000	-3.06000E-001	4.24243E-004	7	...........	-327.63
	2848	56.98	-3.05926E-001	1.58681E-008	0.00000E+000	-3.04000E-001	4.30910E-004	7	...........	-327.63
	2849	57	-3.03910E-001	1.57723E-008	0.00000E+000	-3.02000E-001	4.37576E-004	7	...........	-327.63
	2850	57.02	-3.01912E-001	1.58140E-008	0.00000E+000	-3.00000E-001	4.28410E-004	7	...........	-327.63
	2851	57.04	-2.99893E-001	1.58556E-008	0.00000E+000	-2.98000E-001	4.21743E-004	7	...........	-327.63
	2852	57.06	-2.97903E-001	1.56098E-008	0.00000E+000	-2.96000E-001	4.15910E-004	7	...........	-327.63
	2853	57.08	-2.95919E-001	1.57848E-008	0.00000E+000	-2.94000E-001	4.19243E-004	7	...........	-327.63
	2854	57.1	-2.93932E-001	1.57681E-008	0.00000E+000	-2.92000E-001	4.43410E-004	7	...........	-327.63
	2855	57.12	-2.91923E-001	1.56598E-008	0.00000E+000	-2.90000E-001	4.32576E-004	7	...........	-327.63
	2856	57.14	-2.89907E-001	1.59098E-008	0.00000E+000	-2.88000E-001	4.33410E-004	7	...........	-327.63
	2857	57.16	-2.87912E-001	1.58015E-008	0.00000E+000	-2.86000E-001	4.10910E-004	7	...........	-327.63
	2858	57.18	-2.85907E-001	1.56931E-008	0.00000E+000	-2.84000E-001	4.20076E-004	7	...........	-327.63
	2859	57.2	-2.83912E-001	1.57181E-008	0.00000E+000	-2.82000E-001	4.05910E-004	7	...........	-327.63
	2860	57.22	-2.81928E-001	1.58015E-008	0.00000E+000	-2.80000E-001	4.18410E-004	7	...........	-327.63
	2861	57.24	-2.79923E-001	1.58098E-008	0.00000E+000	-2.78000E-001	4.37576E-004	7	...........	-327.63
	2862	57.26	-2.77930E-001	1.59181E-008	0.00000E+000	-2.76000E-001	4.35910E-004	7	...........	-327.63
	2863	57.28	-2.75932E-001	1.55973E-008	0.00000E+000	-2.74000E-001	4.13410E-004	7	...........	-327.63
	2864	57.3	-2.73926E-001	1.57598E-008	0.00000E+000	-2.72000E-001	4.36743E-004	7	...........	-327.63
	2865	57.32	-2.71928E-001	1.57931E-008	0.00000E+000	-2.70000E-001	4.15076E-004	7	...........	-327.63
	2866	57.34	-2.69944E-001	1.59181E-008	0.00000E+000	-2.68000E-001	4.26743E-004	7	...........	-327.63
	2867	57.36	-2.67941E-001	1.58223E-008	0.00000E+000	-2.66000E-001	4.28410E-004	7	...........	-327.63
	2868	57.38	-2.65943E-001	1.57223E-008	0.00000E+000	-2.64000E-001	4.34243E-004	7	...........	-327.63
	2869	57.4	-2.63938E-001	1.58556E-008	0.00000E+000	-2.62000E-001	4.30076E-004	7	...........	-327.63
	2870	57.42	-2.61945E-001	1.56765E-008	0.00000E+000	-2.60000E-001	4.30910E-004	7	...........	-327.63
	2871	57.44	-2.59936E-001	1.57598E-008	0.00000E+000	-2.58000E-001	4.22576E-004	7	...........	-327.63
	2872	57.46	-2.57935E-001	1.56931E-008	0.00000E+000	-2.56000E-001	4.38410E-004	7	...........	-327.63
	2873	57.48	-2.55929E-001	1.56223E-008	0.00000E+000	-2.54000E-001	4.20910E-004	7	...........	-327.63
	2874	57.5	-2.53973E-001	1.56640E-008	0.00000E+000	-2.52000E-001	4.23410E-004	7	...........	-327.63
	2875	57.52	-2.51962E-001	1.58556E-008	0.00000E+000	-2.50000E-001	4.10910E-004	7	...........	-327.63
	2876	57.54	-2.49964E-001	1.55390E-008	0.00000E+000	-2.48000E-001	4.17576E-004	7	...........	-327.63
	2877	57.56	-2.47947E-001	1.56306E-008	0.00000E+000	-2.46000E-001	4.01743E-004	7	...........	-327.63
	2878	57.58	-2.45957E-001	1.55431E-008	0.00000E+000	-2.44000E-001	4.36743E-004	7	...........	-327.63
	2879	57.6	-2.43964E-001	1.54390E-008	0.00000E+000	-2.42000E-001	4.25910E-004	7	...........	-327.63
	2880	57.62	-2.41971E-001	1.53931E-008	0.00000E+000	-2.40000E-001	4.23410E-004	7	...........	-327.63
	2881	57.64	-2.39960E-001	1.55181E-008	0.00000E+000	-2.38000E-001	4.35076E-004	7	...........	-327.63
	2882	57.66	-2.37966E-001	1.54598E-008	0.00000E+000	-2.36000E-001	4.24243E-004	7	...........	-327.63
	2883	57.68	-2.35970E-001	1.57098E-008	0.00000E+000	-2.34000E-001	4.00910E-004	7	...........	-327.63
	2884	57.7	-2.33972E-001	1.56056E-008	0.00000E+000	-2.32000E-001	4.24243E-004	7	...........	-327.63
	2885	57.72	-2.31977E-001	1.55181E-008	0.00000E+000	-2.30000E-001	4.30076E-004	7	...........	-327.63
	2886	57.74	-2.29977E-001	1.56056E-008	0.00000E+000	-2.28000E-001	4.25076E-004	7	...........	-327.63
	2887	57.76	-2.27984E-001	1.54140E-008	0.00000E+000	-2.26000E-001	4.18410E-004	7	...........	-327.63
	2888	57.78	-2.25975E-001	1.55723E-008	0.00000E+000	-2.24000E-001	4.35076E-004	7	...........	-327.63
	2889	57.8	-2.23988E-001	1.55223E-008	0.00000E+000	-2.22000E-001	4.11743E-004	7	...........	-327.63
	2890	57.82	-2.21973E-001	1.56140E-008	0.00000E+000	-2.20000E-001	4.10076E-004	7	...........	-327.63
	2891	57.84	-2.19982E-001	1.56723E-008	0.00000E+000	-2.18000E-001	4.21743E-004	7	...........	-327.63
	2892	57.86	-2.17990E-001	1.54806E-008	0.00000E+000	-2.16000E-001	4.32576E-004	7	...........	-327.63
	2893	57.88	-2.15990E-001	1.54890E-008	0.00000E+000	-2.14000E-001	4.15076E-004	7	...........	-327.63
	2894	57.9	-2.13990E-001	1.55265E-008	0.00000E+000	-2.12000E-001	4.42576E-004	7	...........	-327.63
	2895	57.92	-2.11982E-001	1.55056E-008	0.00000E+000	-2.10000E-001	4.10076E-004	7	...........	-327.63
	2896	57.94	-2.09987E-001	1.54765E-008	0.00000E+000	-2.08000E-001	4.35076E-004	7	...........	-327.63
	2897	57.96	-2.07981E-001	1.56098E-008	0.00000E+000	-2.06000E-001	4.46743E-004	7	...........	-327.63
	2898	57.98	-2.05983E-001	1.55890E-008	0.00000E+000	-2.04000E-001	4.23410E-004	7	...........	-327.63
	2899	58	-2.04008E-001	1.55973E-008	0.00000E+000	-2.02000E-001	4.13410E-004	7	...........	-327.63
	2900	58.02	-2.01995E-001	1.53681E-008	0.00000E+000	-2.00000E-001	4.26743E-004	7	...........	-327.63
	2901	58.04	-2.00016E-001	1.53765E-008	0.00000E+000	-1.98000E-001	4.12576E-004	7	...........	-327.63
	2902	58.06	-1.98022E-001	1.54765E-008	0.00000E+000	-1.96000E-001	4.20910E-004	7	...........	-327.63
	2903	58.08	-1.96015E-001	1.55681E-008	0.00000E+000	-1.94000E-001	4.02576E-004	7	...........	-327.63
	2904	58.1	-1.94019E-001	1.53390E-008	0.00000E+000	-1.92000E-001	4.23410E-004	7	...........	-327.63
	2905	58.12	-1.92011E-001	1.52140E-008	0.00000E+000	-1.90000E-001	4.21743E-004	7	...........	-327.63
	2906	58.14	-1.90035E-001	1.52931E-008	0.00000E+000	-1.88000E-001	4.31743E-004	7	...........	-327.63
	2907	58.16	-1.88023E-001	1.54140E-008	0.00000E+000	-1.86000E-001	4.16743E-004	7	...........	-327.63
	2908	58.18	-1.86001E-001	1.52640E-008	0.00000E+000	-1.84000E-001	4.17576E-004	7	...........	-327.63
	2909	58.2	-1.84015E-001	1.53598E-008	0.00000E+000	-1.82000E-001	4.04243E-004	7	...........	-327.63
	2910	58.22	-1.82012E-001	1.54306E-008	0.00000E+000	-1.80000E-001	4.32576E-004	7	...........	-327.63
	2911	58.24	-1.80023E-001	1.53973E-008	0.00000E+000	-1.78000E-001	3.86743E-004	7	...........	-327.63
	2912	58.26	-1.78033E-001	1.53431E-008	0.00000E+000	-1.76000E-001	4.34243E-004	7	...........	-327.63
	2913	58.28	-1.76019E-001	1.54556E-008	0.00000E+000	-1.74000E-001	4.09243E-004	7	...........	-327.63
	2914	58.3	-1.74027E-001	1.53515E-008	0.00000E+000	-1.72000E-001	4.29243E-004	7	...........	-327.63
	2915	58.32	-1.72031E-001	1.54265E-008	0.00000E+000	-1.70000E-001	4.00076E-004	7	...........	-327.63
	2916	58.34	-1.70027E-001	1.54556E-008	0.00000E+000	-1.68000E-001	4.30910E-004	7	...........	-327.63
	2917	58.36	-1.68027E-001	1.52890E-008	0.00000E+000	-1.66000E-001	4.13410E-004	7	...........	-327.63
	2918	58.38	-1.66034E-001	1.54015E-008	0.00000E+000	-1.64000E-001	4.40910E-004	7	...........	-327.63
	2919	58.4	-1.64057E-001	1.54098E-008	0.00000E+000	-1.62000E-001	4.28410E-004	7	...........	-327.63
	2920	58.42	-1.62042E-001	1.54390E-008	0.00000E+000	-1.60000E-001	4.28410E-004	7	...........	-327.63
	2921	58.44	-1.60045E-001	1.51848E-008	0.00000E+000	-1.58000E-001	4.14243E-004	7	...........	-327.63
	2922	58.46	-1.58034E-001	1.51056E-008	0.00000E+000	-1.56000E-001	4.41743E-004	7	...........	-327.63
	2923	58.48	-1.56029E-001	1.53431E-008	0.00000E+000	-1.54000E-001	4.07576E-004	7	...........	-327.63
	2924	58.5	-1.54034E-001	1.51848E-008	0.00000E+000	-1.52000E-001	4.37576E-004	7	...........	-327.63
	2925	58.52	-1.52057E-001	1.50639E-008	0.00000E+000	-1.50000E-001	4.26743E-004	7	...........	-327.63
	2926	58.54	-1.50057E-001	1.53306E-008	0.00000E+000	-1.48000E-001	4.29243E-004	7	...........	-327.63
	2927	58.56	-1.48056E-001	1.50514E-008	0.00000E+000	-1.46000E-001	4.16743E-004	7	...........	-327.63
	2928	58.58	-1.46059E-001	1.51514E-008	0.00000E+000	-1.44000E-001	4.40076E-004	7	...........	-327.63
	2929	58.6	-1.44054E-001	1.50723E-008	0.00000E+000	-1.42000E-001	4.05076E-004	7	...........	-327.63
	2930	58.62	-1.42061E-001	1.50514E-008	0.00000E+000	-1.40000E-001	4.41743E-004	7	...........	-327.63
	2931	58.64	-1.40073E-001	1.50556E-008	0.00000E+000	-1.38000E-001	4.22576E-004	7	...........	-327.63
	2932	58.66	-1.38064E-001	1.52140E-008	0.00000E+000	-1.36000E-001	4.30910E-004	7	...........	-327.63
	2933	58.68	-1.36066E-001	1.51556E-008	0.00000E+000	-1.34000E-001	4.15076E-004	7	...........	-327.63
	2934	58.7	-1.34061E-001	1.49681E-008	0.00000E+000	-1.32000E-001	4.28410E-004	7	...........	-327.63
	2935	58.72	-1.32053E-001	1.50598E-008	0.00000E+000	-1.30000E-001	4.20076E-004	7	...........	-327.63
	2936	58.74	-1.30067E-001	1.50931E-008	0.00000E+000	-1.28000E-001	4.25910E-004	7	...........	-327.63
	2937	58.76	-1.28080E-001	1.52515E-008	0.00000E+000	-1.26000E-001	4.09243E-004	7	...........	-327.63
	2938	58.78	-1.26081E-001	1.50598E-008	0.00000E+000	-1.24000E-001	4.48410E-004	7	...........	-327.63
	2939	58.8	-1.24079E-001	1.52056E-008	0.00000E+000	-1.22000E-001	4.10910E-004	7	...........	-327.63
	2940	58.82	-1.22092E-001	1.50264E-008	0.00000E+000	-1.20000E-001	4.25076E-004	7	...........	-327.63
	2941	58.84	-1.20069E-001	1.50473E-008	0.00000E+000	-1.18000E-001	4.07576E-004	7	...........	-327.63
	2942	58.86	-1.18086E-001	1.49889E-008	0.00000E+000	-1.16000E-001	4.35076E-004	7	...........	-327.63
	2943	58.88	-1.16089E-001	1.50264E-008	0.00000E+000	-1.14000E-001	4.24243E-004	7	...........	-327.63
	2944	58.9	-1.14101E-001	1.53056E-008	0.00000E+000	-1.12000E-001	4.31743E-004	7	...........	-327.63
	2945	58.92	-1.12089E-001	1.51640E-008	0.00000E+000	-1.10000E-001	4.20910E-004	7	...........	-327.63
	2946	58.94	-1.10097E-001	1.50473E-008	0.00000E+000	-1.08000E-001	4.29243E-004	7	...........	-327.63
	2947	58.96	-1.08093E-001	1.49306E-008	0.00000E+000	-1.06000E-001	4.21743E-004	7	...........	-327.63
	2948	58.98	-1.06090E-001	1.49223E-008	0.00000E+000	-1.04000E-001	4.22576E-004	7	...........	-327.63
	2949	59	-1.04089E-001	1.50098E-008	0.00000E+000	-1.02000E-001	4.09243E-004	7	...........	-327.63
	2950	59.02	-1.02111E-001	1.50723E-008	0.00000E+000	-1.00000E-001	4.35910E-004	7	...........	-327.63
	2951	59.04	-1.00116E-001	1.49473E-008	0.00000E+000	-9.80000E-002	4.18410E-004	7	...........	-327.63
	2952	59.06	-9.81128E-002	1.49806E-008	0.00000E+000	-9.60000E-002	4.32576E-004	7	...........	-327.63
	2953	59.08	-9.61191E-002	1.50806E-008	0.00000E+000	-9.40000E-002	4.23410E-004	7	...........	-327.63
	2954	59.1	-9.41220E-002	1.49681E-008	0.00000E+000	-9.20000E-002	4.29243E-004	7	...........	-327.63
	2955	59.12	-9.21220E-002	1.49014E-008	0.00000E+000	-9.00000E-002	4.01743E-004	7	...........	-327.63
	2956	59.14	-9.01270E-002	1.49056E-008	0.00000E+000	-8.80000E-002	4.25910E-004	7	...........	-327.63
	2957	59.16	-8.81387E-002	1.49806E-008	0.00000E+000	-8.60000E-002	4.26743E-004	7	...........	-327.63
	2958	59.18	-8.61337E-002	1.49598E-008	0.00000E+000	-8.40000E-002	4.35076E-004	7	...........	-327.63
	2959	59.2	-8.41253E-002	1.50139E-008	0.00000E+000	-8.20000E-002	4.15076E-004	7	...........	-327.63
	2960	59.22	-8.21207E-002	1.49348E-008	0.00000E+000	-8.00000E-002	4.27576E-004	7	...........	-327.63
	2961	59.24	-8.01166E-002	1.48889E-008	0.00000E+000	-7.80000E-002	4.00910E-004	7	...........	-327.63
	2962	59.26	-7.81170E-002	1.50056E-008	0.00000E+000	-7.60000E-002	4.31743E-004	7	...........	-327.63
	2963	59.28	-7.61407E-002	1.50348E-008	0.00000E+000	-7.40000E-002	4.11743E-004	7	...........	-327.63
	2964	59.3	-7.41491E-002	1.49014E-008	0.00000E+000	-7.20000E-002	4.37576E-004	7	...........	-327.63
	2965	59.32	-7.21312E-002	1.47639E-008	0.00000E+000	-7.00000E-002	4.31743E-004	7	...........	-327.63
	2966	59.34	-7.01374E-002	1.48889E-008	0.00000E+000	-6.80000E-002	4.17576E-004	7	...........	-327.63
	2967	59.36	-6.81370E-002	1.47598E-008	0.00000E+000	-6.60000E-002	4.24243E-004	7	...........	-327.63
	2968	59.38	-6.61407E-002	1.47389E-008	0.00000E+000	-6.40000E-002	4.31743E-004	7	...........	-327.63
	2969	59.4	-6.41537E-002	1.48264E-008	0.00000E+000	-6.20000E-002	4.23410E-004	7	...........	-327.63
	2970	59.42	-6.21632E-002	1.50098E-008	0.00000E+000	-6.00000E-002	4.15076E-004	7	...........	-327.63
	2971	59.44	-6.01549E-002	1.49848E-008	0.00000E+000	-5.80000E-002	4.27576E-004	7	...........	-327.63
	2972	59.46	-5.81482E-002	1.50264E-008	0.00000E+000	-5.60000E-002	4.30910E-004	7	...........	-327.63
	2973	59.48	-5.61520E-002	1.48681E-008	0.00000E+000	-5.40000E-002	4.11743E-004	7	...........	-327.63
	2974	59.5	-5.41457E-002	1.49264E-008	0.00000E+000	-5.20000E-002	4.30076E-004	7	...........	-327.63
	2975	59.52	-5.21428E-002	1.48056E-008	0.00000E+000	-5.00000E-002	4.12576E-004	7	...........	-327.63
	2976	59.54	-5.01774E-002	1.49223E-008	0.00000E+000	-4.80000E-002	4.34243E-004	7	...........	-327.63
	2977	59.56	-4.81649E-002	1.49056E-008	0.00000E+000	-4.60000E-002	4.13410E-004	7	...........	-327.63
	2978	59.58	-4.61582E-002	1.47848E-008	0.00000E+000	-4.40000E-002	4.38410E-004	7	...........	-327.63
	2979	59.6	-4.41637E-002	1.47973E-008	0.00000E+000	-4.20000E-002	4.20076E-004	7	...........	-327.63
	2980	59.62	-4.21720E-002	1.46514E-008	0.00000E+000	-4.00000E-002	4.10910E-004	7	...........	-327.63
	2981	59.64	-4.01720E-002	1.46889E-008	0.00000E+000	-3.80000E-002	4.22576E-004	7	...........	-327.63
	2982	59.66	-3.81816E-002	1.48806E-008	0.00000E+000	-3.60000E-002	4.34243E-004	7	...........	-327.63
	2983	59.68	-3.61887E-002	1.47306E-008	0.00000E+000	-3.40000E-002	4.20076E-004	7	...........	-327.63
	2984	59.7	-3.41703E-002	1.49806E-008	0.00000E+000	-3.20000E-002	4.37576E-004	7	...........	-327.63
	2985	59.72	-3.21778E-002	1.50223E-008	0.00000E+000	-3.00000E-002	4.30076E-004	7	...........	-327.63
	2986	59.74	-3.01687E-002	1.49264E-008	0.00000E+000	-2.80000E-002	4.40910E-004	7	...........	-327.63
	2987	59.76	-2.81778E-002	1.49139E-008	0.00000E+000	-2.60000E-002	4.11743E-004	7	...........	-327.63
	2988	59.78	-2.61862E-002	1.48764E-008	0.00000E+000	-2.40000E-002	4.25076E-004	7	...........	-327.63
	2989	59.8	-2.42024E-002	1.48348E-008	0.00000E+000	-2.20000E-002	4.23410E-004	7	...........	-327.63
	2990	59.82	-2.21907E-002	1.49806E-008	0.00000E+000	-2.00000E-002	4.29243E-004	7	...........	-327.63
	2991	59.84	-2.01966E-002	1.48556E-008	0.00000E+000	-1.80000E-002	4.25076E-004	7	...........	-327.63
	2992	59.86	-1.81957E-002	1.49806E-008	0.00000E+000	-1.60000E-002	4.18410E-004	7	...........	-327.63
	2993	59.88	-1.61966E-002	1.49723E-008	0.00000E+000	-1.40000E-002	4.24243E-004	7	...........	-327.63
	2994	59.9	-1.41970E-002	1.48681E-008	0.00000E+000	-1.20000E-002	4.16743E-004	7	...........	-327.63
	2995	59.92	-1.22091E-002	1.50639E-008	0.00000E+000	-1.00000E-002	4.28410E-004	7	...........	-327.63
	2996	59.94	-1.02237E-002	1.49556E-008	0.00000E+000	-8.00000E-003	4.34243E-004	7	...........	-327.63
	2997	59.96	-8.20824E-003	1.48098E-008	0.00000E+000	-6.00000E-003	4.26743E-004	7	...........	-327.63
	2998	59.98	-6.19241E-003	1.49723E-008	0.00000E+000	-4.00000E-003	4.35910E-004	7	...........	-327.63
	2999	60	-4.19366E-003	1.48681E-008	0.00000E+000	-2.00000E-003	4.16743E-004	7	...........	-327.63
	3000	60.02	-2.21908E-003	1.49973E-008	0.00000E+000	0.00000E+000	4.20076E-004	7	...........	-327.63