File: Gamry/CV_fullWindow_noBuffer.DTA
EXPLAIN
TAG	CV
TITLE	LABEL	Cyclic Voltammetry	Test &Identifier
DATE	LABEL	5-12-2022	Date
TIME	LABEL	13:19:20	Time
NOTES	NOTES	1	&Notes...

PSTAT	PSTAT	REF3000-20110	Potentiostat
VINIT	POTEN	0.00000E+000	F	Initial &E (V)
VLIMIT1	POTEN	5.00000E-001	F	Scan Limit &1 (V)
VLIMIT2	POTEN	-5.00000E-001	F	Scan Limit &2 (V)
VFINAL	POTEN	0.00000E+000	F	Final &E (V)
SCANRATE	QUANT	9.99998E+001	&Scan Rate (mV/s)
STEPSIZE	QUANT	2.00000E+000	St&ep Size (mV)
CYCLES	IQUANT	3	C&ycles (#)
IMODE	SELECTOR	0	I/E Range &Mode
IRANGE	QUANT	3.00000E-001	&Max Current (mA)
AREA	QUANT	1.00000E+000	Electrode &Area (cm^2)
ELECTRODETYPE	SELECTOR	0	Electrode Type
STRIPPING	TOGGLE	F	Used for Stripping
CONDIT	TWOPARAM	F	1.50000E+001	0.00000E+000	Conditionin&g	Time(s)	E(V)
DELAY	TWOPARAM	F	3.00000E+001	0.00000E+000	Init. De&lay	Time(s)	Stab.(mV/s)
EQDELAY	QUANT	0.00000E+000	Equil. &Time (s)
IRCOMP	SELECTOR	0	IRCom&p
PFCOR	QUANT	5.00000E+001	PF Corr. (ohm)
SAMPLINGMODE	SELECTOR	1	Sampling &Mode
EOC	QUANT	0	Open Circuit (V)
PSTATMODEL	IQUANT	5	Pstat Model
PSTATSECTION	LABEL	REF3000-20110	Pstat Section
PSTATSERIALNO	LABEL	20110	Pstat Serial Number
CTRLMODE	IQUANT	1	Control Mode
ELECTROMETER	IQUANT	0	RE=0 or CS=1
IESTAB	IQUANT	2	I/E Stability
CASPEED	IQUANT	4	Control Amp Speed
CONVENTION	IQUANT	1	Current Convention
ICHRANGE	IQUANT	2	Ich Range
ICHRANGEMODE	TOGGLE	F	Ich Auto Range
ICHOFFSETENABLE	TOGGLE	F	Ich Offset Enable
ICHOFFSET	QUANT	0	Ich Offset (V)
ICHFILTER	IQUANT	2	Ich Filter
VCHRANGE	IQUANT	2	Vch Range
VCHRANGEMODE	TOGGLE	F	Vch Auto Range
VCHOFFSETENABLE	TOGGLE	F	Vch Offset Enable
VCHOFFSET	QUANT	0	Vch Offset (V)
VCHFILTER	IQUANT	2	Vch Filter
ACHRANGE	IQUANT	2	Ach Range
ACHOFFSETENABLE	TOGGLE	F	Ach Offset Enable
ACHOFFSET	QUANT	0	Ach Offset (V)
ACHFILTER	IQUANT	1	Ach Filter
IERANGELOWERLIMIT	IQUANT	2	I/E Range Lower Limit
IERANGEMODE	TOGGLE	T	I/E AutoRange
IERANGE	IQUANT	9	I/E Range
POSFEEDENABLE	TOGGLE	F	Positive Feedback IR Comp
POSFEEDRESISTANCE	QUANT	0	Positive Feedback Resistance (ohm)
ACHSELECT	IQUANT	4	Ach Select
SENSECABLEID	IQUANT	14	Sense Cable ID
PWRCABLEID	IQUANT	7	Power Cable ID
DCCALDATE	LABEL	8/9/2022	DC Calibration Date
ACCALDATE	LABEL	8/9/2022	AC Calibration Date
THERMOSELECT	IQUANT	1	Thermo Select
FRAMEWORKVERSION	LABEL	7.9.0	Framework Version
INSTRUMENTVERSION	LABEL	4.60	Instrument Version
COMPLIANCEVOLTAGE	IQUANT	0	Compliance Voltage
CURVE1	TABLE
	Pt	T	Vf	Im	Vu	Sig	Ach	IERange	Over	Temp
	#	s	V vs. Ref.	A	V	V	V	#	bits	deg C
	0	0.02	3.73681E-003	-9.90594E-008	0.00000E+000	0.00000E+000	7.50910E-004	9	...........	-327.63
	2	0.06	7.75759E-003	-9.73281E-009	0.00000E+000	4.00000E-003	7.51743E-004	7	...........	-327.63
	4	0.1	1.16847E-002	-9.71198E-009	0.00000E+000	8.00000E-003	7.41743E-004	7	...........	-327.63
	6	0.14	1.56084E-002	-9.88698E-009	0.00000E+000	1.20000E-002	7.31743E-004	7	...........	-327.63
	8	0.18	1.95655E-002	-9.75781E-009	0.00000E+000	1.60000E-002	7.39243E-004	7	...........	-327.63
	10	0.22	2.35084E-002	-9.79531E-009	0.00000E+000	2.00000E-002	7.40910E-004	7	...........	-327.63
	12	0.26	2.74372E-002	-9.75781E-009	0.00000E+000	2.40000E-002	7.29243E-004	7	...........	-327.63
	14	0.3	3.13826E-002	-9.79531E-009	0.00000E+000	2.80000E-002	7.29243E-004	7	...........	-327.63
	16	0.34	3.53384E-002	-9.62864E-009	0.00000E+000	3.20000E-002	7.35910E-004	7	...........	-327.63
	18	0.38	3.96243E-002	-9.72864E-009	0.00000E+000	3.60000E-002	7.48410E-004	7	...........	-327.63
	20	0.42	4.33405E-002	-9.69114E-009	0.00000E+000	4.00000E-002	7.40076E-004	7	...........	-327.63
	22	0.46	4.73738E-002	-9.67031E-009	0.00000E+000	4.40000E-002	7.59243E-004	7	...........	-327.63
	24	0.5	5.13980E-002	-9.90365E-009	0.00000E+000	4.80000E-002	7.21743E-004	7	...........	-327.63
	26	0.54	5.54230E-002	-9.83282E-009	0.00000E+000	5.20000E-002	7.40076E-004	7	...........	-327.63
	28	0.58	5.94497E-002	-9.84531E-009	0.00000E+000	5.60000E-002	7.30076E-004	7	...........	-327.63
	30	0.62	6.36818E-002	-1.00328E-008	0.00000E+000	6.00000E-002	7.34243E-004	7	...........	-327.63
	32	0.66	6.73713E-002	-1.00703E-008	0.00000E+000	6.40000E-002	7.61743E-004	7	...........	-327.63
	34	0.7	7.12922E-002	-9.95782E-009	0.00000E+000	6.80000E-002	7.35076E-004	7	...........	-327.63
	36	0.74	7.52097E-002	-9.92032E-009	0.00000E+000	7.20000E-002	7.35910E-004	7	...........	-327.63
	38	0.78	7.91784E-002	-9.99949E-009	0.00000E+000	7.60000E-002	7.40076E-004	7	...........	-327.63
	40	0.82	8.30701E-002	-1.01162E-008	0.00000E+000	8.00000E-002	7.46743E-004	7	...........	-327.63
	42	0.86	8.69963E-002	-9.93699E-009	0.00000E+000	8.40000E-002	7.33410E-004	7	...........	-327.63
	44	0.9	9.09501E-002	-9.95365E-009	0.00000E+000	8.80000E-002	7.48410E-004	7	...........	-327.63
	46	0.94	9.46509E-002	-9.85365E-009	0.00000E+000	9.20000E-002	7.41743E-004	7	...........	-327.63
	48	0.98	9.83763E-002	-9.81615E-009	0.00000E+000	9.60000E-002	7.16743E-004	7	...........	-327.63
	50	1.02	1.02180E-001	-1.00162E-008	0.00000E+000	1.00000E-001	7.64243E-004	7	...........	-327.63
	52	1.06	1.06076E-001	-9.92032E-009	0.00000E+000	1.04000E-001	7.34243E-004	7	...........	-327.63
	54	1.1	1.10844E-001	-9.89532E-009	0.00000E+000	1.08000E-001	7.40076E-004	7	...........	-327.63
	56	1.14	1.13970E-001	-9.81198E-009	0.00000E+000	1.12000E-001	7.44243E-004	7	...........	-327.63
	58	1.18	1.17550E-001	-9.68698E-009	0.00000E+000	1.16000E-001	7.21743E-004	7	...........	-327.63
	60	1.22	1.21358E-001	-9.74114E-009	0.00000E+000	1.20000E-001	7.45910E-004	7	...........	-327.63
	62	1.26	1.25298E-001	-9.72031E-009	0.00000E+000	1.24000E-001	7.30910E-004	7	...........	-327.63
	64	1.3	1.29234E-001	-9.73698E-009	0.00000E+000	1.28000E-001	7.18410E-004	7	...........	-327.63
	66	1.34	1.33224E-001	-9.94532E-009	0.00000E+000	1.32000E-001	7.43410E-004	7	...........	-327.63
	68	1.38	1.37178E-001	-9.75781E-009	0.00000E+000	1.36000E-001	7.30076E-004	7	...........	-327.63
	70	1.42	1.41182E-001	-9.59114E-009	0.00000E+000	1.40000E-001	7.44243E-004	7	...........	-327.63
	72	1.46	1.45165E-001	-9.53697E-009	0.00000E+000	1.44000E-001	7.69243E-004	7	...........	-327.63
	74	1.5	1.49142E-001	-9.35363E-009	0.00000E+000	1.48000E-001	7.28410E-004	7	...........	-327.63
	76	1.54	1.53156E-001	-9.42863E-009	0.00000E+000	1.52000E-001	7.48410E-004	7	...........	-327.63
	78	1.58	1.57182E-001	-9.39530E-009	0.00000E+000	1.56000E-001	7.31743E-004	7	...........	-327.63
	80	1.62	1.61139E-001	-9.32863E-009	0.00000E+000	1.60000E-001	7.35910E-004	7	...........	-327.63
	82	1.66	1.65147E-001	-9.26196E-009	0.00000E+000	1.64000E-001	7.29243E-004	7	...........	-327.63
	84	1.7	1.69186E-001	-9.25363E-009	0.00000E+000	1.68000E-001	7.35076E-004	7	...........	-327.63
	86	1.74	1.73181E-001	-9.13696E-009	0.00000E+000	1.72000E-001	7.60076E-004	7	...........	-327.63
	88	1.78	1.77113E-001	-8.96195E-009	0.00000E+000	1.76000E-001	7.53410E-004	7	...........	-327.63
	90	1.82	1.81080E-001	-9.08695E-009	0.00000E+000	1.80000E-001	7.60076E-004	7	...........	-327.63
	92	1.86	1.85064E-001	-9.17862E-009	0.00000E+000	1.84000E-001	7.42576E-004	7	...........	-327.63
	94	1.9	1.89055E-001	-9.04112E-009	0.00000E+000	1.88000E-001	7.45910E-004	7	...........	-327.63
	96	1.94	1.93037E-001	-8.94528E-009	0.00000E+000	1.92000E-001	7.42576E-004	7	...........	-327.63
	98	1.98	1.97032E-001	-8.94945E-009	0.00000E+000	1.96000E-001	7.65910E-004	7	...........	-327.63
	100	2.02	2.00997E-001	-8.80361E-009	0.00000E+000	2.00000E-001	7.36743E-004	7	...........	-327.63
	102	2.06	2.04915E-001	-8.81611E-009	0.00000E+000	2.04000E-001	7.38410E-004	7	...........	-327.63
	104	2.1	2.08911E-001	-8.79528E-009	0.00000E+000	2.08000E-001	7.25910E-004	7	...........	-327.63
	106	2.14	2.12888E-001	-8.72444E-009	0.00000E+000	2.12000E-001	7.39243E-004	7	...........	-327.63
	108	2.18	2.16857E-001	-8.79111E-009	0.00000E+000	2.16000E-001	7.17576E-004	7	...........	-327.63
	110	2.22	2.20832E-001	-8.58693E-009	0.00000E+000	2.20000E-001	7.24243E-004	7	...........	-327.63
	112	2.26	2.24792E-001	-8.50360E-009	0.00000E+000	2.24000E-001	7.41743E-004	7	...........	-327.63
	114	2.3	2.28778E-001	-8.57443E-009	0.00000E+000	2.28000E-001	7.30910E-004	7	...........	-327.63
	116	2.34	2.32752E-001	-8.44943E-009	0.00000E+000	2.32000E-001	7.21743E-004	7	...........	-327.63
	118	2.38	2.36750E-001	-8.50360E-009	0.00000E+000	2.36000E-001	7.37576E-004	7	...........	-327.63
	120	2.42	2.40728E-001	-8.29109E-009	0.00000E+000	2.40000E-001	7.35910E-004	7	...........	-327.63
	122	2.46	2.44684E-001	-8.26192E-009	0.00000E+000	2.44000E-001	7.51743E-004	7	...........	-327.63
	124	2.5	2.48670E-001	-8.23275E-009	0.00000E+000	2.48000E-001	7.31743E-004	7	...........	-327.63
	126	2.54	2.52650E-001	-7.99941E-009	0.00000E+000	2.52000E-001	7.40076E-004	7	...........	-327.63
	128	2.58	2.56624E-001	-8.07025E-009	0.00000E+000	2.56000E-001	7.31743E-004	7	...........	-327.63
	130	2.62	2.60580E-001	-7.73690E-009	0.00000E+000	2.60000E-001	7.24243E-004	7	...........	-327.63
	132	2.66	2.64543E-001	-7.63690E-009	0.00000E+000	2.64000E-001	7.52576E-004	7	...........	-327.63
	134	2.7	2.68521E-001	-7.53690E-009	0.00000E+000	2.68000E-001	7.35076E-004	7	...........	-327.63
	136	2.74	2.72534E-001	-7.54106E-009	0.00000E+000	2.72000E-001	7.76743E-004	7	...........	-327.63
	138	2.78	2.76486E-001	-7.33689E-009	0.00000E+000	2.76000E-001	7.49243E-004	7	...........	-327.63
	140	2.82	2.80542E-001	-7.50773E-009	0.00000E+000	2.80000E-001	7.59243E-004	7	...........	-327.63
	142	2.86	2.84463E-001	-7.29939E-009	0.00000E+000	2.84000E-001	7.39243E-004	7	...........	-327.63
	144	2.9	2.88430E-001	-7.07021E-009	0.00000E+000	2.88000E-001	7.52576E-004	7	...........	-327.63
	146	2.94	2.92451E-001	-7.03688E-009	0.00000E+000	2.92000E-001	7.30076E-004	7	...........	-327.63
	148	2.98	2.96411E-001	-6.86604E-009	0.00000E+000	2.96000E-001	7.54243E-004	7	...........	-327.63
	150	3.02	3.00403E-001	-6.80770E-009	0.00000E+000	3.00000E-001	7.63410E-004	7	...........	-327.63
	152	3.06	3.04411E-001	-6.56186E-009	0.00000E+000	3.04000E-001	7.65910E-004	7	...........	-327.63
	154	3.1	3.08334E-001	-6.59519E-009	0.00000E+000	3.08000E-001	7.32576E-004	7	...........	-327.63
	156	3.14	3.12325E-001	-6.49936E-009	0.00000E+000	3.12000E-001	7.46743E-004	7	...........	-327.63
	158	3.18	3.16277E-001	-6.31185E-009	0.00000E+000	3.16000E-001	7.49243E-004	7	...........	-327.63
	160	3.22	3.20256E-001	-6.15351E-009	0.00000E+000	3.20000E-001	7.40076E-004	7	...........	-327.63
	162	3.26	3.24221E-001	-5.84517E-009	0.00000E+000	3.24000E-001	7.40910E-004	7	...........	-327.63
	164	3.3	3.28215E-001	-5.84517E-009	0.00000E+000	3.28000E-001	7.65910E-004	7	...........	-327.63
	166	3.34	3.32193E-001	-5.55349E-009	0.00000E+000	3.32000E-001	7.50076E-004	7	...........	-327.63
	168	3.38	3.36147E-001	-5.47432E-009	0.00000E+000	3.36000E-001	7.47576E-004	7	...........	-327.63
	170	3.42	3.40113E-001	-5.37432E-009	0.00000E+000	3.40000E-001	7.43410E-004	7	...........	-327.63
	172	3.46	3.44095E-001	-4.98263E-009	0.00000E+000	3.44000E-001	7.45910E-004	7	...........	-327.63
	174	3.5	3.48078E-001	-5.02430E-009	0.00000E+000	3.48000E-001	7.50076E-004	7	...........	-327.63
	176	3.54	3.52048E-001	-4.46178E-009	0.00000E+000	3.52000E-001	7.42576E-004	7	...........	-327.63
	178	3.58	3.56001E-001	-4.56595E-009	0.00000E+000	3.56000E-001	7.36743E-004	7	...........	-327.63
	180	3.62	3.59958E-001	-4.36594E-009	0.00000E+000	3.60000E-001	7.41743E-004	7	...........	-327.63
	182	3.66	3.63962E-001	-4.08260E-009	0.00000E+000	3.64000E-001	7.32576E-004	7	...........	-327.63
	184	3.7	3.67910E-001	-3.82426E-009	0.00000E+000	3.68000E-001	7.33410E-004	7	...........	-327.63
	186	3.74	3.71883E-001	-3.69925E-009	0.00000E+000	3.72000E-001	7.40910E-004	7	...........	-327.63
	188	3.78	3.75838E-001	-3.42424E-009	0.00000E+000	3.76000E-001	7.51743E-004	7	...........	-327.63
	190	3.82	3.79845E-001	-3.41174E-009	0.00000E+000	3.80000E-001	7.44243E-004	7	...........	-327.63
	192	3.86	3.83800E-001	-3.14507E-009	0.00000E+000	3.84000E-001	7.37576E-004	7	...........	-327.63
	194	3.9	3.87793E-001	-2.96589E-009	0.00000E+000	3.88000E-001	7.43410E-004	7	...........	-327.63
	196	3.94	3.91762E-001	-2.95756E-009	0.00000E+000	3.92000E-001	7.53410E-004	7	...........	-327.63
	198	3.98	3.95731E-001	-2.59505E-009	0.00000E+000	3.96000E-001	7.45910E-004	7	...........	-327.63
	200	4.02	3.99710E-001	-2.41587E-009	0.00000E+000	4.00000E-001	7.52576E-004	7	...........	-327.63
	202	4.06	4.03698E-001	-2.60338E-009	0.00000E+000	4.04000E-001	7.42576E-004	7	...........	-327.63
	204	4.1	4.07658E-001	-2.32420E-009	0.00000E+000	4.08000E-001	7.45076E-004	7	...........	-327.63
	206	4.14	4.11596E-001	-2.44504E-009	0.00000E+000	4.12000E-001	7.54243E-004	7	...........	-327.63
	208	4.18	4.15566E-001	-1.96169E-009	0.00000E+000	4.16000E-001	7.46743E-004	7	...........	-327.63
	210	4.22	4.19538E-001	-2.01169E-009	0.00000E+000	4.20000E-001	7.48410E-004	7	...........	-327.63
	212	4.26	4.23532E-001	-1.87835E-009	0.00000E+000	4.24000E-001	7.51743E-004	7	...........	-327.63
	214	4.3	4.27523E-001	-1.78251E-009	0.00000E+000	4.28000E-001	7.56743E-004	7	...........	-327.63
	216	4.34	4.31487E-001	-1.51584E-009	0.00000E+000	4.32000E-001	7.38410E-004	7	...........	-327.63
	218	4.38	4.35450E-001	-1.24083E-009	0.00000E+000	4.36000E-001	7.41743E-004	7	...........	-327.63
	220	4.42	4.39426E-001	-1.05332E-009	0.00000E+000	4.40000E-001	7.46743E-004	7	...........	-327.63
	222	4.46	4.43396E-001	-9.36650E-010	0.00000E+000	4.44000E-001	7.35076E-004	7	...........	-327.63
	224	4.5	4.47377E-001	-7.78311E-010	0.00000E+000	4.48000E-001	7.35910E-004	7	...........	-327.63
	226	4.54	4.51372E-001	-6.74140E-010	0.00000E+000	4.52000E-001	7.46743E-004	7	...........	-327.63
	228	4.58	4.55325E-001	-4.03297E-010	0.00000E+000	4.56000E-001	7.40910E-004	7	...........	-327.63
	230	4.62	4.59335E-001	-2.82459E-010	0.00000E+000	4.60000E-001	7.70910E-004	7	...........	-327.63
	232	4.66	4.63281E-001	-1.44954E-010	0.00000E+000	4.64000E-001	7.58410E-004	7	...........	-327.63
	234	4.7	4.67269E-001	3.00896E-010	0.00000E+000	4.68000E-001	7.41743E-004	7	...........	-327.63
	236	4.74	4.71247E-001	1.46724E-010	0.00000E+000	4.72000E-001	7.46743E-004	7	...........	-327.63
	238	4.78	4.75190E-001	4.71736E-010	0.00000E+000	4.76000E-001	7.33410E-004	7	...........	-327.63
	240	4.82	4.79179E-001	7.80081E-010	0.00000E+000	4.80000E-001	7.30076E-004	7	...........	-327.63
	242	4.86	4.83165E-001	1.03842E-009	0.00000E+000	4.84000E-001	7.30910E-004	7	...........	-327.63
	244	4.9	4.87128E-001	1.09676E-009	0.00000E+000	4.88000E-001	7.70076E-004	7	...........	-327.63
	246	4.94	4.91098E-001	1.27177E-009	0.00000E+000	4.92000E-001	7.26743E-004	7	...........	-327.63
	248	4.98	4.95072E-001	1.45511E-009	0.00000E+000	4.96000E-001	7.50910E-004	7	...........	-327.63
	250	5.02	4.99050E-001	1.66345E-009	0.00000E+000	5.00000E-001	7.65910E-004	7	...........	-327.63
	252	5.06	4.95019E-001	1.87595E-009	0.00000E+000	4.96000E-001	7.37576E-004	7	...........	-327.63
	254	5.1	4.91016E-001	2.26764E-009	0.00000E+000	4.92000E-001	7.21743E-004	7	...........	-327.63
	256	5.14	4.86991E-001	2.63432E-009	0.00000E+000	4.88000E-001	7.45910E-004	7	...........	-327.63
	258	5.18	4.82989E-001	2.82182E-009	0.00000E+000	4.84000E-001	7.59243E-004	7	...........	-327.63
	260	5.22	4.78947E-001	2.93433E-009	0.00000E+000	4.80000E-001	7.50910E-004	7	...........	-327.63
	262	5.26	4.74924E-001	2.93849E-009	0.00000E+000	4.76000E-001	7.41743E-004	7	...........	-327.63
	264	5.3	4.70916E-001	3.36768E-009	0.00000E+000	4.72000E-001	7.40076E-004	7	...........	-327.63
	266	5.34	4.66900E-001	3.61352E-009	0.00000E+000	4.68000E-001	7.49243E-004	7	...........	-327.63
	268	5.38	4.62869E-001	3.82186E-009	0.00000E+000	4.64000E-001	7.44243E-004	7	...........	-327.63
	270	5.42	4.58870E-001	4.08020E-009	0.00000E+000	4.60000E-001	7.25076E-004	7	...........	-327.63
	272	5.46	4.54848E-001	4.19687E-009	0.00000E+000	4.56000E-001	7.47576E-004	7	...........	-327.63
	274	5.5	4.50822E-001	4.25104E-009	0.00000E+000	4.52000E-001	7.46743E-004	7	...........	-327.63
	276	5.54	4.46758E-001	4.46355E-009	0.00000E+000	4.48000E-001	7.41743E-004	7	...........	-327.63
	278	5.58	4.42781E-001	4.85940E-009	0.00000E+000	4.44000E-001	7.45076E-004	7	...........	-327.63
	280	5.62	4.38763E-001	4.78856E-009	0.00000E+000	4.40000E-001	7.31743E-004	7	...........	-327.63
	282	5.66	4.34755E-001	5.06774E-009	0.00000E+000	4.36000E-001	7.62576E-004	7	...........	-327.63
	284	5.7	4.30723E-001	5.23858E-009	0.00000E+000	4.32000E-001	7.49243E-004	7	...........	-327.63
	286	5.74	4.26710E-001	5.46359E-009	0.00000E+000	4.28000E-001	7.42576E-004	7	...........	-327.63
	288	5.78	4.22678E-001	5.53442E-009	0.00000E+000	4.24000E-001	7.44243E-004	7	...........	-327.63
	290	5.82	4.18665E-001	5.55943E-009	0.00000E+000	4.20000E-001	7.46743E-004	7	...........	-327.63
	292	5.86	4.14648E-001	5.68860E-009	0.00000E+000	4.16000E-001	7.40076E-004	7	...........	-327.63
	294	5.9	4.10625E-001	6.28029E-009	0.00000E+000	4.12000E-001	7.30910E-004	7	...........	-327.63
	296	5.94	4.06632E-001	6.39696E-009	0.00000E+000	4.08000E-001	7.56743E-004	7	...........	-327.63
	298	5.98	4.02592E-001	6.60946E-009	0.00000E+000	4.04000E-001	7.33410E-004	7	...........	-327.63
	300	6.02	3.98593E-001	6.70530E-009	0.00000E+000	4.00000E-001	7.55076E-004	7	...........	-327.63
	302	6.06	3.94577E-001	6.95948E-009	0.00000E+000	3.96000E-001	7.45076E-004	7	...........	-327.63
	304	6.1	3.90552E-001	7.46783E-009	0.00000E+000	3.92000E-001	7.52576E-004	7	...........	-327.63
	306	6.14	3.86510E-001	7.58867E-009	0.00000E+000	3.88000E-001	7.36743E-004	7	...........	-327.63
	308	6.18	3.82510E-001	7.82618E-009	0.00000E+000	3.84000E-001	7.30076E-004	7	...........	-327.63
	310	6.22	3.78465E-001	8.11785E-009	0.00000E+000	3.80000E-001	7.42576E-004	7	...........	-327.63
	312	6.26	3.74468E-001	8.31786E-009	0.00000E+000	3.76000E-001	7.51743E-004	7	...........	-327.63
	314	6.3	3.70445E-001	8.65954E-009	0.00000E+000	3.72000E-001	7.41743E-004	7	...........	-327.63
	316	6.34	3.66420E-001	8.73454E-009	0.00000E+000	3.68000E-001	7.35076E-004	7	...........	-327.63
	318	6.38	3.62381E-001	9.09289E-009	0.00000E+000	3.64000E-001	7.35910E-004	7	...........	-327.63
	320	6.42	3.58370E-001	9.26373E-009	0.00000E+000	3.60000E-001	7.48410E-004	7	...........	-327.63
	322	6.46	3.54361E-001	9.55541E-009	0.00000E+000	3.56000E-001	7.46743E-004	7	...........	-327.63
	324	6.5	3.50340E-001	9.84709E-009	0.00000E+000	3.52000E-001	7.48410E-004	7	...........	-327.63
	326	6.54	3.46304E-001	9.96792E-009	0.00000E+000	3.48000E-001	7.50910E-004	7	...........	-327.63
	328	6.58	3.42283E-001	1.01721E-008	0.00000E+000	3.44000E-001	7.54243E-004	7	...........	-327.63
	330	6.62	3.38257E-001	1.05971E-008	0.00000E+000	3.40000E-001	7.32576E-004	7	...........	-327.63
	332	6.66	3.34236E-001	1.05471E-008	0.00000E+000	3.36000E-001	7.40910E-004	7	...........	-327.63
	334	6.7	3.30229E-001	1.09096E-008	0.00000E+000	3.32000E-001	7.30076E-004	7	...........	-327.63
	336	6.74	3.26220E-001	1.09388E-008	0.00000E+000	3.28000E-001	7.25910E-004	7	...........	-327.63
	338	6.78	3.22195E-001	1.12180E-008	0.00000E+000	3.24000E-001	7.44243E-004	7	...........	-327.63
	340	6.82	3.18155E-001	1.16388E-008	0.00000E+000	3.20000E-001	7.40910E-004	7	...........	-327.63
	342	6.86	3.14150E-001	1.17097E-008	0.00000E+000	3.16000E-001	7.42576E-004	7	...........	-327.63
	344	6.9	3.10140E-001	1.19472E-008	0.00000E+000	3.12000E-001	7.44243E-004	7	...........	-327.63
	346	6.94	3.06160E-001	1.19722E-008	0.00000E+000	3.08000E-001	7.73410E-004	7	...........	-327.63
	348	6.98	3.02149E-001	1.21763E-008	0.00000E+000	3.04000E-001	7.66743E-004	7	...........	-327.63
	350	7.02	2.98123E-001	1.23472E-008	0.00000E+000	3.00000E-001	7.36743E-004	7	...........	-327.63
	352	7.06	2.94103E-001	1.25597E-008	0.00000E+000	2.96000E-001	7.50076E-004	7	...........	-327.63
	354	7.1	2.90111E-001	1.26180E-008	0.00000E+000	2.92000E-001	7.29243E-004	7	...........	-327.63
	356	7.14	2.86109E-001	1.27222E-008	0.00000E+000	2.88000E-001	7.50910E-004	7	...........	-327.63
	358	7.18	2.82105E-001	1.30722E-008	0.00000E+000	2.84000E-001	7.50076E-004	7	...........	-327.63
	360	7.22	2.78090E-001	1.31722E-008	0.00000E+000	2.80000E-001	7.51743E-004	7	...........	-327.63
	362	7.26	2.74069E-001	1.32222E-008	0.00000E+000	2.76000E-001	7.58410E-004	7	...........	-327.63
	364	7.3	2.70066E-001	1.33722E-008	0.00000E+000	2.72000E-001	7.45910E-004	7	...........	-327.63
	366	7.34	2.66057E-001	1.34847E-008	0.00000E+000	2.68000E-001	7.26743E-004	7	...........	-327.63
	368	7.38	2.62040E-001	1.38139E-008	0.00000E+000	2.64000E-001	7.41743E-004	7	...........	-327.63
	370	7.42	2.58049E-001	1.39472E-008	0.00000E+000	2.60000E-001	7.55076E-004	7	...........	-327.63
	372	7.46	2.54043E-001	1.43056E-008	0.00000E+000	2.56000E-001	7.43410E-004	7	...........	-327.63
	374	7.5	2.50036E-001	1.42056E-008	0.00000E+000	2.52000E-001	7.44243E-004	7	...........	-327.63
	376	7.54	2.46025E-001	1.44639E-008	0.00000E+000	2.48000E-001	7.35076E-004	7	...........	-327.63
	378	7.58	2.42026E-001	1.45806E-008	0.00000E+000	2.44000E-001	7.30910E-004	7	...........	-327.63
	380	7.62	2.38031E-001	1.47348E-008	0.00000E+000	2.40000E-001	7.40076E-004	7	...........	-327.63
	382	7.66	2.34009E-001	1.51014E-008	0.00000E+000	2.36000E-001	7.34243E-004	7	...........	-327.63
	384	7.7	2.30014E-001	1.50848E-008	0.00000E+000	2.32000E-001	7.45910E-004	7	...........	-327.63
	386	7.74	2.26026E-001	1.51389E-008	0.00000E+000	2.28000E-001	7.35910E-004	7	...........	-327.63
	388	7.78	2.22026E-001	1.53140E-008	0.00000E+000	2.24000E-001	7.49243E-004	7	...........	-327.63
	390	7.82	2.18017E-001	1.55181E-008	0.00000E+000	2.20000E-001	7.34243E-004	7	...........	-327.63
	392	7.86	2.14020E-001	1.56056E-008	0.00000E+000	2.16000E-001	7.55076E-004	7	...........	-327.63
	394	7.9	2.10017E-001	1.58681E-008	0.00000E+000	2.12000E-001	7.34243E-004	7	...........	-327.63
	396	7.94	2.06019E-001	1.60098E-008	0.00000E+000	2.08000E-001	7.32576E-004	7	...........	-327.63
	398	7.98	2.02045E-001	1.62015E-008	0.00000E+000	2.04000E-001	7.40076E-004	7	...........	-327.63
	400	8.02	1.98056E-001	1.64598E-008	0.00000E+000	2.00000E-001	7.55076E-004	7	...........	-327.63
	402	8.06	1.94073E-001	1.64098E-008	0.00000E+000	1.96000E-001	7.64243E-004	7	...........	-327.63
	404	8.1	1.90060E-001	1.67390E-008	0.00000E+000	1.92000E-001	7.53410E-004	7	...........	-327.63
	406	8.14	1.86080E-001	1.68015E-008	0.00000E+000	1.88000E-001	7.38410E-004	7	...........	-327.63
	408	8.18	1.82081E-001	1.68223E-008	0.00000E+000	1.84000E-001	7.45910E-004	7	...........	-327.63
	410	8.22	1.78095E-001	1.69765E-008	0.00000E+000	1.80000E-001	7.51743E-004	7	...........	-327.63
	412	8.26	1.74095E-001	1.71890E-008	0.00000E+000	1.76000E-001	7.49243E-004	7	...........	-327.63
	414	8.3	1.70118E-001	1.74515E-008	0.00000E+000	1.72000E-001	7.51743E-004	7	...........	-327.63
	416	8.34	1.66111E-001	1.75224E-008	0.00000E+000	1.68000E-001	7.54243E-004	7	...........	-327.63
	418	8.38	1.62146E-001	1.78807E-008	0.00000E+000	1.64000E-001	7.42576E-004	7	...........	-327.63
	420	8.42	1.58149E-001	1.78224E-008	0.00000E+000	1.60000E-001	7.49243E-004	7	...........	-327.63
	422	8.46	1.54164E-001	1.81849E-008	0.00000E+000	1.56000E-001	7.31743E-004	7	...........	-327.63
	424	8.5	1.50179E-001	1.81432E-008	0.00000E+000	1.52000E-001	7.24243E-004	7	...........	-327.63
	426	8.54	1.46192E-001	1.83057E-008	0.00000E+000	1.48000E-001	7.44243E-004	7	...........	-327.63
	428	8.58	1.42211E-001	1.82599E-008	0.00000E+000	1.44000E-001	7.67576E-004	7	...........	-327.63
	430	8.62	1.38226E-001	1.84266E-008	0.00000E+000	1.40000E-001	7.51743E-004	7	...........	-327.63
	432	8.66	1.34251E-001	1.86266E-008	0.00000E+000	1.36000E-001	7.42576E-004	7	...........	-327.63
	434	8.7	1.30253E-001	1.87224E-008	0.00000E+000	1.32000E-001	7.40076E-004	7	...........	-327.63
	436	8.74	1.26266E-001	1.89058E-008	0.00000E+000	1.28000E-001	7.46743E-004	7	...........	-327.63
	438	8.78	1.22290E-001	1.89641E-008	0.00000E+000	1.24000E-001	7.60076E-004	7	...........	-327.63
	440	8.82	1.18297E-001	1.91308E-008	0.00000E+000	1.20000E-001	7.45910E-004	7	...........	-327.63
	442	8.86	1.14307E-001	1.91558E-008	0.00000E+000	1.16000E-001	7.29243E-004	7	...........	-327.63
	444	8.9	1.10330E-001	1.91266E-008	0.00000E+000	1.12000E-001	7.47576E-004	7	...........	-327.63
	446	8.94	1.06360E-001	1.91058E-008	0.00000E+000	1.08000E-001	7.42576E-004	7	...........	-327.63
	448	8.98	1.02385E-001	1.94099E-008	0.00000E+000	1.04000E-001	7.51743E-004	7	...........	-327.63
	450	9.02	9.84272E-002	1.92349E-008	0.00000E+000	1.00000E-001	7.40076E-004	7	...........	-327.63
	452	9.06	9.44351E-002	1.93599E-008	0.00000E+000	9.60000E-002	7.52576E-004	7	...........	-327.63
	454	9.1	9.04513E-002	1.95099E-008	0.00000E+000	9.20000E-002	7.35076E-004	7	...........	-327.63
	456	9.14	8.64738E-002	1.95141E-008	0.00000E+000	8.80000E-002	7.44243E-004	7	...........	-327.63
	458	9.18	8.25047E-002	1.97100E-008	0.00000E+000	8.40000E-002	7.25910E-004	7	...........	-327.63
	460	9.22	7.85284E-002	1.99683E-008	0.00000E+000	8.00000E-002	7.36743E-004	7	...........	-327.63
	462	9.26	7.45618E-002	1.99475E-008	0.00000E+000	7.60000E-002	7.41743E-004	7	...........	-327.63
	464	9.3	7.05917E-002	2.00141E-008	0.00000E+000	7.20000E-002	7.19243E-004	7	...........	-327.63
	466	9.34	6.66226E-002	1.98975E-008	0.00000E+000	6.80000E-002	7.60910E-004	7	...........	-327.63
	468	9.38	6.26572E-002	1.99641E-008	0.00000E+000	6.40000E-002	7.47576E-004	7	...........	-327.63
	470	9.42	5.86888E-002	1.99100E-008	0.00000E+000	6.00000E-002	7.29243E-004	7	...........	-327.63
	472	9.46	5.46980E-002	2.01308E-008	0.00000E+000	5.60000E-002	7.51743E-004	7	...........	-327.63
	474	9.5	5.07513E-002	2.01641E-008	0.00000E+000	5.20000E-002	7.35076E-004	7	...........	-327.63
	476	9.54	4.67859E-002	2.03600E-008	0.00000E+000	4.80000E-002	7.47576E-004	7	...........	-327.63
	478	9.58	4.28030E-002	2.01641E-008	0.00000E+000	4.40000E-002	7.50910E-004	7	...........	-327.63
	480	9.62	3.88155E-002	2.05600E-008	0.00000E+000	4.00000E-002	7.38410E-004	7	...........	-327.63
	482	9.66	3.48776E-002	2.02058E-008	0.00000E+000	3.60000E-002	7.52576E-004	7	...........	-327.63
	484	9.7	3.08980E-002	2.04266E-008	0.00000E+000	3.20000E-002	7.39243E-004	7	...........	-327.63
	486	9.74	2.69147E-002	2.04891E-008	0.00000E+000	2.80000E-002	7.50076E-004	7	...........	-327.63
	488	9.78	2.29538E-002	2.05975E-008	0.00000E+000	2.40000E-002	7.50076E-004	7	...........	-327.63
	490	9.82	1.89918E-002	2.06225E-008	0.00000E+000	2.00000E-002	7.43410E-004	7	...........	-327.63
	492	9.86	1.49984E-002	2.07892E-008	0.00000E+000	1.60000E-002	7.32576E-004	7	...........	-327.63
	494	9.9	1.10213E-002	2.07517E-008	0.00000E+000	1.20000E-002	7.46743E-004	7	...........	-327.63
	496	9.94	7.05217E-003	2.08017E-008	0.00000E+000	8.00000E-003	7.49243E-004	7	...........	-327.63
	498	9.98	3.06884E-003	2.10142E-008	0.00000E+000	4.00000E-003	7.46743E-004	7	...........	-327.63
	500	10.02	-9.08243E-004	2.10350E-008	0.00000E+000	0.00000E+000	7.59243E-004	7	...........	-327.63
	502	10.06	-4.87449E-003	2.08933E-008	0.00000E+000	-4.00000E-003	7.38410E-004	7	...........	-327.63
	504	10.1	-8.86199E-003	2.09350E-008	0.00000E+000	-8.00000E-003	7.47576E-004	7	...........	-327.63
	506	10.14	-1.28353E-002	2.09308E-008	0.00000E+000	-1.20000E-002	7.34243E-004	7	...........	-327.63
	508	10.18	-1.67995E-002	2.10725E-008	0.00000E+000	-1.60000E-002	7.50076E-004	7	...........	-327.63
	510	10.22	-2.07657E-002	2.10225E-008	0.00000E+000	-2.00000E-002	7.54243E-004	7	...........	-327.63
	512	10.26	-2.47374E-002	2.09017E-008	0.00000E+000	-2.40000E-002	7.34243E-004	7	...........	-327.63
	514	10.3	-2.86932E-002	2.10600E-008	0.00000E+000	-2.80000E-002	7.48410E-004	7	...........	-327.63
	516	10.34	-3.26582E-002	2.08017E-008	0.00000E+000	-3.20000E-002	7.42576E-004	7	...........	-327.63
	518	10.38	-3.66470E-002	2.09183E-008	0.00000E+000	-3.60000E-002	7.44243E-004	7	...........	-327.63
	520	10.42	-4.05966E-002	2.07892E-008	0.00000E+000	-4.00000E-002	7.37576E-004	7	...........	-327.63
	522	10.46	-4.45657E-002	2.07892E-008	0.00000E+000	-4.40000E-002	7.49243E-004	7	...........	-327.63
	524	10.5	-4.85216E-002	2.06683E-008	0.00000E+000	-4.80000E-002	7.55076E-004	7	...........	-327.63
	526	10.54	-5.24770E-002	2.09100E-008	0.00000E+000	-5.20000E-002	7.51743E-004	7	...........	-327.63
	528	10.58	-5.64395E-002	2.08183E-008	0.00000E+000	-5.60000E-002	7.59243E-004	7	...........	-327.63
	530	10.62	-6.04103E-002	2.08808E-008	0.00000E+000	-6.00000E-002	7.49243E-004	7	...........	-327.63
	532	10.66	-6.43591E-002	2.08017E-008	0.00000E+000	-6.40000E-002	7.37576E-004	7	...........	-327.63
	534	10.7	-6.83257E-002	2.09558E-008	0.00000E+000	-6.80000E-002	7.30910E-004	7	...........	-327.63
	536	10.74	-7.22874E-002	2.08100E-008	0.00000E+000	-7.20000E-002	7.48410E-004	7	...........	-327.63
	538	10.78	-7.62678E-002	2.09058E-008	0.00000E+000	-7.60000E-002	7.32576E-004	7	...........	-327.63
	540	10.82	-8.02253E-002	2.09017E-008	0.00000E+000	-8.00000E-002	7.33410E-004	7	...........	-327.63
	542	10.86	-8.41857E-002	2.08308E-008	0.00000E+000	-8.40000E-002	7.49243E-004	7	...........	-327.63
	544	10.9	-8.81653E-002	2.07767E-008	0.00000E+000	-8.80000E-002	7.78410E-004	7	...........	-327.63
	546	10.94	-9.21178E-002	2.08725E-008	0.00000E+000	-9.20000E-002	7.55076E-004	7	...........	-327.63
	548	10.98	-9.60916E-002	2.08017E-008	0.00000E+000	-9.60000E-002	7.63410E-004	7	...........	-327.63
	550	11.02	-1.00077E-001	2.07142E-008	0.00000E+000	-1.00000E-001	7.34243E-004	7	...........	-327.63
	552	11.06	-1.04017E-001	2.07642E-008	0.00000E+000	-1.04000E-001	7.35076E-004	7	...........	-327.63
	554	11.1	-1.07983E-001	2.06183E-008	0.00000E+000	-1.08000E-001	7.40076E-004	7	...........	-327.63
	556	11.14	-1.11947E-001	2.05475E-008	0.00000E+000	-1.12000E-001	7.76743E-004	7	...........	-327.63
	558	11.18	-1.15927E-001	2.06225E-008	0.00000E+000	-1.16000E-001	7.44243E-004	7	...........	-327.63
	560	11.22	-1.19888E-001	2.05517E-008	0.00000E+000	-1.20000E-001	7.30910E-004	7	...........	-327.63
	562	11.26	-1.23870E-001	2.04391E-008	0.00000E+000	-1.24000E-001	7.39243E-004	7	...........	-327.63
	564	11.3	-1.27852E-001	2.02433E-008	0.00000E+000	-1.28000E-001	7.40910E-004	7	...........	-327.63
	566	11.34	-1.31800E-001	2.01766E-008	0.00000E+000	-1.32000E-001	7.54243E-004	7	...........	-327.63
	568	11.38	-1.35793E-001	2.00016E-008	0.00000E+000	-1.36000E-001	7.50910E-004	7	...........	-327.63
	570	11.42	-1.39754E-001	2.00558E-008	0.00000E+000	-1.40000E-001	7.24243E-004	7	...........	-327.63
	572	11.46	-1.43712E-001	1.99933E-008	0.00000E+000	-1.44000E-001	7.30910E-004	7	...........	-327.63
	574	11.5	-1.47689E-001	1.98683E-008	0.00000E+000	-1.48000E-001	7.20910E-004	7	...........	-327.63
	576	11.54	-1.51668E-001	1.97475E-008	0.00000E+000	-1.52000E-001	7.28410E-004	7	...........	-327.63
	578	11.58	-1.55614E-001	1.97641E-008	0.00000E+000	-1.56000E-001	7.30910E-004	7	...........	-327.63
	580	11.62	-1.59591E-001	1.94391E-008	0.00000E+000	-1.60000E-001	7.22576E-004	7	...........	-327.63
	582	11.66	-1.63568E-001	1.96183E-008	0.00000E+000	-1.64000E-001	7.41743E-004	7	...........	-327.63
	584	11.7	-1.67534E-001	1.94349E-008	0.00000E+000	-1.68000E-001	7.56743E-004	7	...........	-327.63
	586	11.74	-1.71508E-001	1.94683E-008	0.00000E+000	-1.72000E-001	7.45910E-004	7	...........	-327.63
	588	11.78	-1.75508E-001	1.94141E-008	0.00000E+000	-1.76000E-001	7.26743E-004	7	...........	-327.63
	590	11.82	-1.79464E-001	1.93141E-008	0.00000E+000	-1.80000E-001	7.46743E-004	7	...........	-327.63
	592	11.86	-1.83429E-001	1.90766E-008	0.00000E+000	-1.84000E-001	7.51743E-004	7	...........	-327.63
	594	11.9	-1.87403E-001	1.90766E-008	0.00000E+000	-1.88000E-001	7.49243E-004	7	...........	-327.63
	596	11.94	-1.91386E-001	1.87849E-008	0.00000E+000	-1.92000E-001	7.50076E-004	7	...........	-327.63
	598	11.98	-1.95368E-001	1.90891E-008	0.00000E+000	-1.96000E-001	7.50910E-004	7	...........	-327.63
	600	12.02	-1.99340E-001	1.88433E-008	0.00000E+000	-2.00000E-001	7.45076E-004	7	...........	-327.63
	602	12.06	-2.03325E-001	1.86974E-008	0.00000E+000	-2.04000E-001	7.57576E-004	7	...........	-327.63
	604	12.1	-2.07281E-001	1.86724E-008	0.00000E+000	-2.08000E-001	7.43410E-004	7	...........	-327.63
	606	12.14	-2.11276E-001	1.85224E-008	0.00000E+000	-2.12000E-001	7.52576E-004	7	...........	-327.63
	608	12.18	-2.15245E-001	1.86057E-008	0.00000E+000	-2.16000E-001	7.52576E-004	7	...........	-327.63
	610	12.22	-2.19233E-001	1.84641E-008	0.00000E+000	-2.20000E-001	7.30076E-004	7	...........	-327.63
	612	12.26	-2.23221E-001	1.82474E-008	0.00000E+000	-2.24000E-001	7.40910E-004	7	...........	-327.63
	614	12.3	-2.27187E-001	1.83307E-008	0.00000E+000	-2.28000E-001	7.35076E-004	7	...........	-327.63
	616	12.34	-2.31151E-001	1.80807E-008	0.00000E+000	-2.32000E-001	7.50076E-004	7	...........	-327.63
	618	12.38	-2.35131E-001	1.78515E-008	0.00000E+000	-2.36000E-001	7.50910E-004	7	...........	-327.63
	620	12.42	-2.39131E-001	1.77724E-008	0.00000E+000	-2.40000E-001	7.36743E-004	7	...........	-327.63
	622	12.46	-2.43109E-001	1.79391E-008	0.00000E+000	-2.44000E-001	7.32576E-004	7	...........	-327.63
	624	12.5	-2.47082E-001	1.75557E-008	0.00000E+000	-2.48000E-001	7.42576E-004	7	...........	-327.63
	626	12.54	-2.51068E-001	1.76390E-008	0.00000E+000	-2.52000E-001	7.40910E-004	7	...........	-327.63
	628	12.58	-2.55062E-001	1.73599E-008	0.00000E+000	-2.56000E-001	7.35910E-004	7	...........	-327.63
	630	12.62	-2.59000E-001	1.75682E-008	0.00000E+000	-2.60000E-001	7.46743E-004	7	...........	-327.63
	632	12.66	-2.62985E-001	1.72474E-008	0.00000E+000	-2.64000E-001	7.42576E-004	7	...........	-327.63
	634	12.7	-2.66973E-001	1.71182E-008	0.00000E+000	-2.68000E-001	7.45076E-004	7	...........	-327.63
	636	12.74	-2.70937E-001	1.72432E-008	0.00000E+000	-2.72000E-001	7.25910E-004	7	...........	-327.63
	638	12.78	-2.74924E-001	1.72682E-008	0.00000E+000	-2.76000E-001	7.52576E-004	7	...........	-327.63
	640	12.82	-2.78897E-001	1.72265E-008	0.00000E+000	-2.80000E-001	7.29243E-004	7	...........	-327.63
	642	12.86	-2.82854E-001	1.69557E-008	0.00000E+000	-2.84000E-001	7.35910E-004	7	...........	-327.63
	644	12.9	-2.86849E-001	1.68557E-008	0.00000E+000	-2.88000E-001	7.35076E-004	7	...........	-327.63
	646	12.94	-2.90830E-001	1.67640E-008	0.00000E+000	-2.92000E-001	7.40076E-004	7	...........	-327.63
	648	12.98	-2.94810E-001	1.66598E-008	0.00000E+000	-2.96000E-001	7.38410E-004	7	...........	-327.63
	650	13.02	-2.98794E-001	1.67098E-008	0.00000E+000	-3.00000E-001	7.42576E-004	7	...........	-327.63
	652	13.06	-3.02760E-001	1.65932E-008	0.00000E+000	-3.04000E-001	7.39243E-004	7	...........	-327.63
	654	13.1	-3.06751E-001	1.64598E-008	0.00000E+000	-3.08000E-001	7.44243E-004	7	...........	-327.63
	656	13.14	-3.10709E-001	1.62015E-008	0.00000E+000	-3.12000E-001	7.46743E-004	7	...........	-327.63
	658	13.18	-3.14685E-001	1.61307E-008	0.00000E+000	-3.16000E-001	7.38410E-004	7	...........	-327.63
	660	13.22	-3.18667E-001	1.61473E-008	0.00000E+000	-3.20000E-001	7.41743E-004	7	...........	-327.63
	662	13.26	-3.22636E-001	1.60098E-008	0.00000E+000	-3.24000E-001	7.39243E-004	7	...........	-327.63
	664	13.3	-3.26624E-001	1.58515E-008	0.00000E+000	-3.28000E-001	7.30076E-004	7	...........	-327.63
	666	13.34	-3.30612E-001	1.57390E-008	0.00000E+000	-3.32000E-001	7.43410E-004	7	...........	-327.63
	668	13.38	-3.34574E-001	1.56931E-008	0.00000E+000	-3.36000E-001	7.28410E-004	7	...........	-327.63
	670	13.42	-3.38554E-001	1.54723E-008	0.00000E+000	-3.40000E-001	7.32576E-004	7	...........	-327.63
	672	13.46	-3.42522E-001	1.54015E-008	0.00000E+000	-3.44000E-001	7.46743E-004	7	...........	-327.63
	674	13.5	-3.46494E-001	1.52515E-008	0.00000E+000	-3.48000E-001	7.46743E-004	7	...........	-327.63
	676	13.54	-3.50477E-001	1.50014E-008	0.00000E+000	-3.52000E-001	7.68410E-004	7	...........	-327.63
	678	13.58	-3.54464E-001	1.49431E-008	0.00000E+000	-3.56000E-001	7.44243E-004	7	...........	-327.63
	680	13.62	-3.58434E-001	1.48723E-008	0.00000E+000	-3.60000E-001	7.37576E-004	7	...........	-327.63
	682	13.66	-3.62391E-001	1.48639E-008	0.00000E+000	-3.64000E-001	7.57576E-004	7	...........	-327.63
	684	13.7	-3.66367E-001	1.47681E-008	0.00000E+000	-3.68000E-001	7.49243E-004	7	...........	-327.63
	686	13.74	-3.70338E-001	1.45264E-008	0.00000E+000	-3.72000E-001	7.32576E-004	7	...........	-327.63
	688	13.78	-3.74317E-001	1.45014E-008	0.00000E+000	-3.76000E-001	7.44243E-004	7	...........	-327.63
	690	13.82	-3.78306E-001	1.42681E-008	0.00000E+000	-3.80000E-001	7.42576E-004	7	...........	-327.63
	692	13.86	-3.82273E-001	1.40764E-008	0.00000E+000	-3.84000E-001	7.27576E-004	7	...........	-327.63
	694	13.9	-3.86235E-001	1.39056E-008	0.00000E+000	-3.88000E-001	7.70076E-004	7	...........	-327.63
	696	13.94	-3.90196E-001	1.36681E-008	0.00000E+000	-3.92000E-001	7.50076E-004	7	...........	-327.63
	698	13.98	-3.94185E-001	1.35889E-008	0.00000E+000	-3.96000E-001	7.51743E-004	7	...........	-327.63
	700	14.02	-3.98151E-001	1.32680E-008	0.00000E+000	-4.00000E-001	7.55910E-004	7	...........	-327.63
	702	14.06	-4.02127E-001	1.32097E-008	0.00000E+000	-4.04000E-001	7.23410E-004	7	...........	-327.63
	704	14.1	-4.06109E-001	1.29597E-008	0.00000E+000	-4.08000E-001	7.45076E-004	7	...........	-327.63
	706	14.14	-4.10066E-001	1.29430E-008	0.00000E+000	-4.12000E-001	7.46743E-004	7	...........	-327.63
	708	14.18	-4.14026E-001	1.24930E-008	0.00000E+000	-4.16000E-001	7.54243E-004	7	...........	-327.63
	710	14.22	-4.17994E-001	1.24763E-008	0.00000E+000	-4.20000E-001	7.70910E-004	7	...........	-327.63
	712	14.26	-4.21972E-001	1.21888E-008	0.00000E+000	-4.24000E-001	7.65910E-004	7	...........	-327.63
	714	14.3	-4.25956E-001	1.22597E-008	0.00000E+000	-4.28000E-001	7.40910E-004	7	...........	-327.63
	716	14.34	-4.29930E-001	1.19638E-008	0.00000E+000	-4.32000E-001	7.57576E-004	7	...........	-327.63
	718	14.38	-4.33908E-001	1.15430E-008	0.00000E+000	-4.36000E-001	7.43410E-004	7	...........	-327.63
	720	14.42	-4.37855E-001	1.15055E-008	0.00000E+000	-4.40000E-001	7.48410E-004	7	...........	-327.63
	722	14.46	-4.41840E-001	1.13555E-008	0.00000E+000	-4.44000E-001	7.51743E-004	7	...........	-327.63
	724	14.5	-4.45819E-001	1.13555E-008	0.00000E+000	-4.48000E-001	7.47576E-004	7	...........	-327.63
	726	14.54	-4.49796E-001	1.13430E-008	0.00000E+000	-4.52000E-001	7.49243E-004	7	...........	-327.63
	728	14.58	-4.53785E-001	1.09805E-008	0.00000E+000	-4.56000E-001	7.38410E-004	7	...........	-327.63
	730	14.62	-4.57754E-001	1.10346E-008	0.00000E+000	-4.60000E-001	7.31743E-004	7	...........	-327.63
	732	14.66	-4.61694E-001	1.08221E-008	0.00000E+000	-4.64000E-001	7.72576E-004	7	...........	-327.63
	734	14.7	-4.65669E-001	1.09263E-008	0.00000E+000	-4.68000E-001	7.44243E-004	7	...........	-327.63
	736	14.74	-4.69663E-001	1.05971E-008	0.00000E+000	-4.72000E-001	7.55076E-004	7	...........	-327.63
	738	14.78	-4.73658E-001	1.04179E-008	0.00000E+000	-4.76000E-001	7.62576E-004	7	...........	-327.63
	740	14.82	-4.77614E-001	1.02429E-008	0.00000E+000	-4.80000E-001	7.48410E-004	7	...........	-327.63
	742	14.86	-4.81589E-001	1.03054E-008	0.00000E+000	-4.84000E-001	7.65076E-004	7	...........	-327.63
	744	14.9	-4.85569E-001	9.79708E-009	0.00000E+000	-4.88000E-001	7.29243E-004	7	...........	-327.63
	746	14.94	-4.89528E-001	1.00096E-008	0.00000E+000	-4.92000E-001	7.49243E-004	7	...........	-327.63
	748	14.98	-4.93509E-001	9.82208E-009	0.00000E+000	-4.96000E-001	7.30076E-004	7	...........	-327.63
	750	15.02	-4.97493E-001	9.62624E-009	0.00000E+000	-5.00000E-001	7.50076E-004	7	...........	-327.63
CURVE2	TABLE
	Pt	T	Vf	Im	Vu	Sig	Ach	IERange	Over	Temp
	#	s	V vs. Ref.	A	V	V	V	#	bits	deg C
	751	15.04	-4.95474E-001	9.56374E-009	0.00000E+000	-4.98000E-001	6.36743E-004	7	...........	-327.63
	753	15.08	-4.91456E-001	9.62208E-009	0.00000E+000	-4.94000E-001	6.65076E-004	7	...........	-327.63
	755	15.12	-4.87451E-001	9.22623E-009	0.00000E+000	-4.90000E-001	6.44243E-004	7	...........	-327.63
	757	15.16	-4.83428E-001	9.10122E-009	0.00000E+000	-4.86000E-001	6.62576E-004	7	...........	-327.63
	759	15.2	-4.79411E-001	9.02206E-009	0.00000E+000	-4.82000E-001	6.49243E-004	7	...........	-327.63
	761	15.24	-4.75396E-001	8.84288E-009	0.00000E+000	-4.78000E-001	6.40076E-004	7	...........	-327.63
[...]
	2804	56.1	-3.88633E-001	-3.48674E-009	0.00000E+000	-3.92000E-001	4.67576E-004	7	...........	-327.63
	2805	56.12	-3.86635E-001	-3.40758E-009	0.00000E+000	-3.90000E-001	4.60076E-004	7	...........	-327.63
	2806	56.14	-3.84645E-001	-3.62842E-009	0.00000E+000	-3.88000E-001	4.78410E-004	7	...........	-327.63
	2807	56.16	-3.82670E-001	-3.46591E-009	0.00000E+000	-3.86000E-001	4.55076E-004	7	...........	-327.63
	2808	56.18	-3.80683E-001	-3.36591E-009	0.00000E+000	-3.84000E-001	4.16743E-004	7	...........	-327.63
	2809	56.2	-3.78675E-001	-3.48674E-009	0.00000E+000	-3.82000E-001	4.55910E-004	7	...........	-327.63
	2810	56.22	-3.76693E-001	-3.43674E-009	0.00000E+000	-3.80000E-001	4.36743E-004	7	...........	-327.63
	2811	56.24	-3.74701E-001	-3.44924E-009	0.00000E+000	-3.78000E-001	4.73410E-004	7	...........	-327.63
	2812	56.26	-3.72709E-001	-3.36591E-009	0.00000E+000	-3.76000E-001	4.50076E-004	7	...........	-327.63
	2813	56.28	-3.70708E-001	-3.14923E-009	0.00000E+000	-3.74000E-001	4.30076E-004	7	...........	-327.63
	2814	56.3	-3.68708E-001	-3.26590E-009	0.00000E+000	-3.72000E-001	4.48410E-004	7	...........	-327.63
	2815	56.32	-3.66727E-001	-3.25340E-009	0.00000E+000	-3.70000E-001	4.59243E-004	7	...........	-327.63
	2816	56.34	-3.64726E-001	-3.28674E-009	0.00000E+000	-3.68000E-001	4.55076E-004	7	...........	-327.63
	2817	56.36	-3.62732E-001	-3.29924E-009	0.00000E+000	-3.66000E-001	4.77576E-004	7	...........	-327.63
	2818	56.38	-3.60743E-001	-3.09923E-009	0.00000E+000	-3.64000E-001	4.35910E-004	7	...........	-327.63
	2819	56.4	-3.58746E-001	-3.04089E-009	0.00000E+000	-3.62000E-001	4.68410E-004	7	...........	-327.63
	2820	56.42	-3.56777E-001	-3.15757E-009	0.00000E+000	-3.60000E-001	4.53410E-004	7	...........	-327.63
	2821	56.44	-3.54789E-001	-3.02423E-009	0.00000E+000	-3.58000E-001	4.53410E-004	7	...........	-327.63
	2822	56.46	-3.52789E-001	-3.06590E-009	0.00000E+000	-3.56000E-001	4.47576E-004	7	...........	-327.63
	2823	56.48	-3.50790E-001	-2.93672E-009	0.00000E+000	-3.54000E-001	4.64243E-004	7	...........	-327.63
	2824	56.5	-3.48799E-001	-2.92839E-009	0.00000E+000	-3.52000E-001	4.50910E-004	7	...........	-327.63
	2825	56.52	-3.46793E-001	-2.89922E-009	0.00000E+000	-3.50000E-001	4.56743E-004	7	...........	-327.63
	2826	56.54	-3.44823E-001	-2.90756E-009	0.00000E+000	-3.48000E-001	4.40076E-004	7	...........	-327.63
	2827	56.56	-3.42809E-001	-2.75338E-009	0.00000E+000	-3.46000E-001	4.73410E-004	7	...........	-327.63
	2828	56.58	-3.40825E-001	-2.69505E-009	0.00000E+000	-3.44000E-001	4.70076E-004	7	...........	-327.63
	2829	56.6	-3.38850E-001	-2.61588E-009	0.00000E+000	-3.42000E-001	4.65910E-004	7	...........	-327.63
	2830	56.62	-3.36852E-001	-2.59505E-009	0.00000E+000	-3.40000E-001	4.60076E-004	7	...........	-327.63
	2831	56.64	-3.34858E-001	-2.52421E-009	0.00000E+000	-3.38000E-001	4.50910E-004	7	...........	-327.63
	2832	56.66	-3.32866E-001	-2.52004E-009	0.00000E+000	-3.36000E-001	4.19243E-004	7	...........	-327.63
	2833	56.68	-3.30855E-001	-2.61171E-009	0.00000E+000	-3.34000E-001	4.70910E-004	7	...........	-327.63
	2834	56.7	-3.28879E-001	-2.64921E-009	0.00000E+000	-3.32000E-001	4.50076E-004	7	...........	-327.63
	2835	56.72	-3.26885E-001	-2.42837E-009	0.00000E+000	-3.30000E-001	4.30076E-004	7	...........	-327.63
	2836	56.74	-3.24886E-001	-2.52004E-009	0.00000E+000	-3.28000E-001	4.56743E-004	7	...........	-327.63
	2837	56.76	-3.22922E-001	-2.43254E-009	0.00000E+000	-3.26000E-001	4.56743E-004	7	...........	-327.63
	2838	56.78	-3.20899E-001	-2.34920E-009	0.00000E+000	-3.24000E-001	4.48410E-004	7	...........	-327.63
	2839	56.8	-3.18930E-001	-2.32420E-009	0.00000E+000	-3.22000E-001	4.48410E-004	7	...........	-327.63
	2840	56.82	-3.16940E-001	-2.37837E-009	0.00000E+000	-3.20000E-001	4.77576E-004	7	...........	-327.63
	2841	56.84	-3.14933E-001	-2.28670E-009	0.00000E+000	-3.18000E-001	4.71743E-004	7	...........	-327.63
	2842	56.86	-3.12940E-001	-2.15336E-009	0.00000E+000	-3.16000E-001	4.48410E-004	7	...........	-327.63
	2843	56.88	-3.10942E-001	-2.28253E-009	0.00000E+000	-3.14000E-001	4.75076E-004	7	...........	-327.63
	2844	56.9	-3.08944E-001	-2.14086E-009	0.00000E+000	-3.12000E-001	4.70910E-004	7	...........	-327.63
	2845	56.92	-3.06980E-001	-2.12003E-009	0.00000E+000	-3.10000E-001	4.50910E-004	7	...........	-327.63
	2846	56.94	-3.05013E-001	-2.21170E-009	0.00000E+000	-3.08000E-001	4.60076E-004	7	...........	-327.63
	2847	56.96	-3.03007E-001	-2.02419E-009	0.00000E+000	-3.06000E-001	4.81743E-004	7	...........	-327.63
	2848	56.98	-3.01010E-001	-1.85752E-009	0.00000E+000	-3.04000E-001	4.78410E-004	7	...........	-327.63
	2849	57	-2.99029E-001	-1.98669E-009	0.00000E+000	-3.02000E-001	4.56743E-004	7	...........	-327.63
	2850	57.02	-2.97026E-001	-1.91585E-009	0.00000E+000	-3.00000E-001	4.80076E-004	7	...........	-327.63
	2851	57.04	-2.95029E-001	-1.71168E-009	0.00000E+000	-2.98000E-001	4.57576E-004	7	...........	-327.63
	2852	57.06	-2.93043E-001	-1.74501E-009	0.00000E+000	-2.96000E-001	4.50910E-004	7	...........	-327.63
	2853	57.08	-2.91038E-001	-1.64501E-009	0.00000E+000	-2.94000E-001	4.44243E-004	7	...........	-327.63
	2854	57.1	-2.89044E-001	-1.73251E-009	0.00000E+000	-2.92000E-001	4.47576E-004	7	...........	-327.63
	2855	57.12	-2.87056E-001	-1.62834E-009	0.00000E+000	-2.90000E-001	4.65910E-004	7	...........	-327.63
	2856	57.14	-2.85064E-001	-1.64084E-009	0.00000E+000	-2.88000E-001	4.41743E-004	7	...........	-327.63
	2857	57.16	-2.83077E-001	-1.51584E-009	0.00000E+000	-2.86000E-001	4.59243E-004	7	...........	-327.63
	2858	57.18	-2.81087E-001	-1.68251E-009	0.00000E+000	-2.84000E-001	4.60910E-004	7	...........	-327.63
	2859	57.2	-2.79090E-001	-1.37417E-009	0.00000E+000	-2.82000E-001	4.45076E-004	7	...........	-327.63
	2860	57.22	-2.77095E-001	-1.49917E-009	0.00000E+000	-2.80000E-001	4.62576E-004	7	...........	-327.63
	2861	57.24	-2.75110E-001	-1.37417E-009	0.00000E+000	-2.78000E-001	4.46743E-004	7	...........	-327.63
	2862	57.26	-2.73118E-001	-1.38667E-009	0.00000E+000	-2.76000E-001	4.55910E-004	7	...........	-327.63
	2863	57.28	-2.71112E-001	-1.41167E-009	0.00000E+000	-2.74000E-001	4.75910E-004	7	...........	-327.63
	2864	57.3	-2.69132E-001	-1.44084E-009	0.00000E+000	-2.72000E-001	4.70910E-004	7	...........	-327.63
	2865	57.32	-2.67137E-001	-1.35750E-009	0.00000E+000	-2.70000E-001	4.85910E-004	7	...........	-327.63
	2866	57.34	-2.65145E-001	-1.29500E-009	0.00000E+000	-2.68000E-001	4.68410E-004	7	...........	-327.63
	2867	57.36	-2.63144E-001	-1.32416E-009	0.00000E+000	-2.66000E-001	4.66743E-004	7	...........	-327.63
	2868	57.38	-2.61138E-001	-1.35750E-009	0.00000E+000	-2.64000E-001	4.48410E-004	7	...........	-327.63
	2869	57.4	-2.59157E-001	-1.37000E-009	0.00000E+000	-2.62000E-001	4.59243E-004	7	...........	-327.63
	2870	57.42	-2.57153E-001	-1.26583E-009	0.00000E+000	-2.60000E-001	4.55076E-004	7	...........	-327.63
	2871	57.44	-2.55179E-001	-1.10749E-009	0.00000E+000	-2.58000E-001	4.41743E-004	7	...........	-327.63
	2872	57.46	-2.53182E-001	-1.15749E-009	0.00000E+000	-2.56000E-001	4.52576E-004	7	...........	-327.63
	2873	57.48	-2.51185E-001	-1.12416E-009	0.00000E+000	-2.54000E-001	4.54243E-004	7	...........	-327.63
	2874	57.5	-2.49198E-001	-1.05749E-009	0.00000E+000	-2.52000E-001	4.48410E-004	7	...........	-327.63
	2875	57.52	-2.47204E-001	-1.04915E-009	0.00000E+000	-2.50000E-001	4.46743E-004	7	...........	-327.63
	2876	57.54	-2.45213E-001	-8.24146E-010	0.00000E+000	-2.48000E-001	4.45910E-004	7	...........	-327.63
	2877	57.56	-2.43202E-001	-1.06582E-009	0.00000E+000	-2.46000E-001	4.55910E-004	7	...........	-327.63
	2878	57.58	-2.41239E-001	-9.69984E-010	0.00000E+000	-2.44000E-001	4.61743E-004	7	...........	-327.63
	2879	57.6	-2.39223E-001	-8.49147E-010	0.00000E+000	-2.42000E-001	4.83410E-004	7	...........	-327.63
	2880	57.62	-2.37244E-001	-8.74148E-010	0.00000E+000	-2.40000E-001	4.56743E-004	7	...........	-327.63
	2881	57.64	-2.35247E-001	-7.78311E-010	0.00000E+000	-2.38000E-001	4.58410E-004	7	...........	-327.63
	2882	57.66	-2.33252E-001	-8.49147E-010	0.00000E+000	-2.36000E-001	4.60910E-004	7	...........	-327.63
	2883	57.68	-2.31271E-001	-8.11645E-010	0.00000E+000	-2.34000E-001	4.60910E-004	7	...........	-327.63
	2884	57.7	-2.29293E-001	-7.69977E-010	0.00000E+000	-2.32000E-001	4.77576E-004	7	...........	-327.63
	2885	57.72	-2.27288E-001	-6.03304E-010	0.00000E+000	-2.30000E-001	4.58410E-004	7	...........	-327.63
	2886	57.74	-2.25322E-001	-5.69970E-010	0.00000E+000	-2.28000E-001	4.46743E-004	7	...........	-327.63
	2887	57.76	-2.23308E-001	-5.99137E-010	0.00000E+000	-2.26000E-001	4.51743E-004	7	...........	-327.63
	2888	57.78	-2.21302E-001	-6.15805E-010	0.00000E+000	-2.24000E-001	4.56743E-004	7	...........	-327.63
	2889	57.8	-2.19327E-001	-3.74129E-010	0.00000E+000	-2.22000E-001	4.45910E-004	7	...........	-327.63
	2890	57.82	-2.17338E-001	-5.74136E-010	0.00000E+000	-2.20000E-001	4.54243E-004	7	...........	-327.63
	2891	57.84	-2.15347E-001	-6.36639E-010	0.00000E+000	-2.18000E-001	4.54243E-004	7	...........	-327.63
	2892	57.86	-2.13364E-001	-5.15801E-010	0.00000E+000	-2.16000E-001	4.63410E-004	7	...........	-327.63
	2893	57.88	-2.11359E-001	-5.78303E-010	0.00000E+000	-2.14000E-001	4.60076E-004	7	...........	-327.63
	2894	57.9	-2.09376E-001	-6.11638E-010	0.00000E+000	-2.12000E-001	4.70076E-004	7	...........	-327.63
	2895	57.92	-2.07364E-001	-5.69970E-010	0.00000E+000	-2.10000E-001	4.75910E-004	7	...........	-327.63
	2896	57.94	-2.05386E-001	-5.32468E-010	0.00000E+000	-2.08000E-001	4.45910E-004	7	...........	-327.63
	2897	57.96	-2.03428E-001	-5.44969E-010	0.00000E+000	-2.06000E-001	4.60076E-004	7	...........	-327.63
	2898	57.98	-2.01413E-001	-5.24135E-010	0.00000E+000	-2.04000E-001	4.71743E-004	7	...........	-327.63
	2899	58	-1.99427E-001	-3.74129E-010	0.00000E+000	-2.02000E-001	4.49243E-004	7	...........	-327.63
	2900	58.02	-1.97425E-001	-4.11630E-010	0.00000E+000	-2.00000E-001	4.67576E-004	7	...........	-327.63
	2901	58.04	-1.95429E-001	-4.28298E-010	0.00000E+000	-1.98000E-001	4.60910E-004	7	...........	-327.63
	2902	58.06	-1.93439E-001	-3.36628E-010	0.00000E+000	-1.96000E-001	4.72576E-004	7	...........	-327.63
	2903	58.08	-1.91438E-001	-3.57462E-010	0.00000E+000	-1.94000E-001	4.63410E-004	7	...........	-327.63
	2904	58.1	-1.89450E-001	-3.32461E-010	0.00000E+000	-1.92000E-001	4.78410E-004	7	...........	-327.63
	2905	58.12	-1.87447E-001	-3.40794E-010	0.00000E+000	-1.90000E-001	4.65910E-004	7	...........	-327.63
	2906	58.14	-1.85450E-001	-3.24495E-011	0.00000E+000	-1.88000E-001	4.46743E-004	7	...........	-327.63
	2907	58.16	-1.83462E-001	-9.91187E-011	0.00000E+000	-1.86000E-001	4.41743E-004	7	...........	-327.63
	2908	58.18	-1.81470E-001	-4.07832E-011	0.00000E+000	-1.84000E-001	4.70910E-004	7	...........	-327.63
	2909	58.2	-1.79474E-001	8.42215E-011	0.00000E+000	-1.82000E-001	4.46743E-004	7	...........	-327.63
	2910	58.22	-1.77498E-001	1.30057E-010	0.00000E+000	-1.80000E-001	4.50076E-004	7	...........	-327.63
	2911	58.24	-1.75494E-001	7.58878E-011	0.00000E+000	-1.78000E-001	4.41743E-004	7	...........	-327.63
	2912	58.26	-1.73511E-001	1.84225E-010	0.00000E+000	-1.76000E-001	4.69243E-004	7	...........	-327.63
	2913	58.28	-1.71495E-001	2.67562E-010	0.00000E+000	-1.74000E-001	4.55076E-004	7	...........	-327.63
	2914	58.3	-1.69502E-001	3.25897E-010	0.00000E+000	-1.72000E-001	4.62576E-004	7	...........	-327.63
	2915	58.32	-1.67519E-001	3.75899E-010	0.00000E+000	-1.70000E-001	4.56743E-004	7	...........	-327.63
	2916	58.34	-1.65519E-001	1.92559E-010	0.00000E+000	-1.68000E-001	4.70910E-004	7	...........	-327.63
	2917	58.36	-1.63519E-001	3.13397E-010	0.00000E+000	-1.66000E-001	4.61743E-004	7	...........	-327.63
	2918	58.38	-1.61533E-001	6.50909E-010	0.00000E+000	-1.64000E-001	4.45076E-004	7	...........	-327.63
	2919	58.4	-1.59536E-001	4.30068E-010	0.00000E+000	-1.62000E-001	4.57576E-004	7	...........	-327.63
	2920	58.42	-1.57548E-001	4.55069E-010	0.00000E+000	-1.60000E-001	4.58410E-004	7	...........	-327.63
	2921	58.44	-1.55555E-001	5.92574E-010	0.00000E+000	-1.58000E-001	4.52576E-004	7	...........	-327.63
	2922	58.46	-1.53581E-001	7.46746E-010	0.00000E+000	-1.56000E-001	4.48410E-004	7	...........	-327.63
	2923	58.48	-1.51605E-001	5.55072E-010	0.00000E+000	-1.54000E-001	4.49243E-004	7	...........	-327.63
	2924	58.5	-1.49598E-001	6.42576E-010	0.00000E+000	-1.52000E-001	4.30910E-004	7	...........	-327.63
	2925	58.52	-1.47614E-001	6.92577E-010	0.00000E+000	-1.50000E-001	4.48410E-004	7	...........	-327.63
	2926	58.54	-1.45638E-001	8.05082E-010	0.00000E+000	-1.48000E-001	4.45076E-004	7	...........	-327.63
	2927	58.56	-1.43636E-001	7.75914E-010	0.00000E+000	-1.46000E-001	4.54243E-004	7	...........	-327.63
	2928	58.58	-1.41638E-001	7.09245E-010	0.00000E+000	-1.44000E-001	4.45076E-004	7	...........	-327.63
	2929	58.6	-1.39645E-001	8.75918E-010	0.00000E+000	-1.42000E-001	4.53410E-004	7	...........	-327.63
	2930	58.62	-1.37651E-001	6.46742E-010	0.00000E+000	-1.40000E-001	4.73410E-004	7	...........	-327.63
	2931	58.64	-1.35654E-001	8.88418E-010	0.00000E+000	-1.38000E-001	4.47576E-004	7	...........	-327.63
	2932	58.66	-1.33657E-001	8.25916E-010	0.00000E+000	-1.36000E-001	4.48410E-004	7	...........	-327.63
	2933	58.68	-1.31659E-001	8.46750E-010	0.00000E+000	-1.34000E-001	4.54243E-004	7	...........	-327.63
	2934	58.7	-1.29668E-001	8.59250E-010	0.00000E+000	-1.32000E-001	4.50076E-004	7	...........	-327.63
	2935	58.72	-1.27696E-001	9.30086E-010	0.00000E+000	-1.30000E-001	4.62576E-004	7	...........	-327.63
	2936	58.74	-1.25699E-001	1.01759E-009	0.00000E+000	-1.28000E-001	4.58410E-004	7	...........	-327.63
	2937	58.76	-1.23699E-001	9.96756E-010	0.00000E+000	-1.26000E-001	4.60076E-004	7	...........	-327.63
	2938	58.78	-1.21707E-001	9.05085E-010	0.00000E+000	-1.24000E-001	4.59243E-004	7	...........	-327.63
	2939	58.8	-1.19725E-001	1.11759E-009	0.00000E+000	-1.22000E-001	4.40910E-004	7	...........	-327.63
	2940	58.82	-1.17717E-001	9.21753E-010	0.00000E+000	-1.20000E-001	4.60076E-004	7	...........	-327.63
	2941	58.84	-1.15729E-001	1.15093E-009	0.00000E+000	-1.18000E-001	4.42576E-004	7	...........	-327.63
	2942	58.86	-1.13721E-001	1.29260E-009	0.00000E+000	-1.16000E-001	4.51743E-004	7	...........	-327.63
	2943	58.88	-1.11737E-001	1.18426E-009	0.00000E+000	-1.14000E-001	4.65910E-004	7	...........	-327.63
	2944	58.9	-1.09741E-001	1.20510E-009	0.00000E+000	-1.12000E-001	4.45076E-004	7	...........	-327.63
	2945	58.92	-1.07741E-001	1.23843E-009	0.00000E+000	-1.10000E-001	4.54243E-004	7	...........	-327.63
	2946	58.94	-1.05747E-001	1.44677E-009	0.00000E+000	-1.08000E-001	4.54243E-004	7	...........	-327.63
	2947	58.96	-1.03754E-001	1.41760E-009	0.00000E+000	-1.06000E-001	4.49243E-004	7	...........	-327.63
	2948	58.98	-1.01787E-001	1.51344E-009	0.00000E+000	-1.04000E-001	4.63410E-004	7	...........	-327.63
	2949	59	-9.97845E-002	1.36344E-009	0.00000E+000	-1.02000E-001	4.53410E-004	7	...........	-327.63
	2950	59.02	-9.77945E-002	1.49677E-009	0.00000E+000	-1.00000E-001	4.50076E-004	7	...........	-327.63
	2951	59.04	-9.58032E-002	1.43844E-009	0.00000E+000	-9.80000E-002	4.61743E-004	7	...........	-327.63
	2952	59.06	-9.38182E-002	1.43844E-009	0.00000E+000	-9.60000E-002	4.27576E-004	7	...........	-327.63
	2953	59.08	-9.18053E-002	1.43427E-009	0.00000E+000	-9.40000E-002	4.63410E-004	7	...........	-327.63
	2954	59.1	-8.98141E-002	1.56761E-009	0.00000E+000	-9.20000E-002	4.42576E-004	7	...........	-327.63
	2955	59.12	-8.78420E-002	1.52178E-009	0.00000E+000	-9.00000E-002	4.42576E-004	7	...........	-327.63
	2956	59.14	-8.58341E-002	1.59678E-009	0.00000E+000	-8.80000E-002	4.29243E-004	7	...........	-327.63
	2957	59.16	-8.38278E-002	1.55094E-009	0.00000E+000	-8.60000E-002	4.70076E-004	7	...........	-327.63
	2958	59.18	-8.18449E-002	1.70512E-009	0.00000E+000	-8.40000E-002	4.55076E-004	7	...........	-327.63
	2959	59.2	-7.98374E-002	1.63011E-009	0.00000E+000	-8.20000E-002	4.54243E-004	7	...........	-327.63
	2960	59.22	-7.78307E-002	1.70512E-009	0.00000E+000	-8.00000E-002	4.64243E-004	7	...........	-327.63
	2961	59.24	-7.58366E-002	1.75512E-009	0.00000E+000	-7.80000E-002	4.60910E-004	7	...........	-327.63
	2962	59.26	-7.38470E-002	1.87179E-009	0.00000E+000	-7.60000E-002	4.55076E-004	7	...........	-327.63
	2963	59.28	-7.18649E-002	1.78012E-009	0.00000E+000	-7.40000E-002	4.60910E-004	7	...........	-327.63
	2964	59.3	-6.98532E-002	1.99679E-009	0.00000E+000	-7.20000E-002	4.58410E-004	7	...........	-327.63
	2965	59.32	-6.78666E-002	1.80512E-009	0.00000E+000	-7.00000E-002	4.55076E-004	7	...........	-327.63
	2966	59.34	-6.58616E-002	1.99263E-009	0.00000E+000	-6.80000E-002	4.95910E-004	7	...........	-327.63
	2967	59.36	-6.38824E-002	2.10096E-009	0.00000E+000	-6.60000E-002	4.56743E-004	7	...........	-327.63
	2968	59.38	-6.19070E-002	2.20097E-009	0.00000E+000	-6.40000E-002	4.59243E-004	7	...........	-327.63
	2969	59.4	-5.98899E-002	2.21347E-009	0.00000E+000	-6.20000E-002	4.55910E-004	7	...........	-327.63
	2970	59.42	-5.78987E-002	2.32597E-009	0.00000E+000	-6.00000E-002	4.46743E-004	7	...........	-327.63
	2971	59.44	-5.59141E-002	2.25097E-009	0.00000E+000	-5.80000E-002	4.51743E-004	7	...........	-327.63
	2972	59.46	-5.39207E-002	2.40097E-009	0.00000E+000	-5.60000E-002	4.76743E-004	7	...........	-327.63
	2973	59.48	-5.19220E-002	2.49264E-009	0.00000E+000	-5.40000E-002	4.61743E-004	7	...........	-327.63
	2974	59.5	-4.99591E-002	2.53015E-009	0.00000E+000	-5.20000E-002	4.49243E-004	7	...........	-327.63
	2975	59.52	-4.79628E-002	2.55098E-009	0.00000E+000	-5.00000E-002	4.45076E-004	7	...........	-327.63
	2976	59.54	-4.59699E-002	2.40514E-009	0.00000E+000	-4.80000E-002	4.59243E-004	7	...........	-327.63
	2977	59.56	-4.39691E-002	2.48014E-009	0.00000E+000	-4.60000E-002	4.75910E-004	7	...........	-327.63
	2978	59.58	-4.19857E-002	2.73432E-009	0.00000E+000	-4.40000E-002	4.49243E-004	7	...........	-327.63
	2979	59.6	-3.99982E-002	2.78016E-009	0.00000E+000	-4.20000E-002	4.35910E-004	7	...........	-327.63
	2980	59.62	-3.80095E-002	2.59265E-009	0.00000E+000	-4.00000E-002	4.35076E-004	7	...........	-327.63
	2981	59.64	-3.60095E-002	2.75932E-009	0.00000E+000	-3.80000E-002	4.58410E-004	7	...........	-327.63
	2982	59.66	-3.40303E-002	2.88016E-009	0.00000E+000	-3.60000E-002	4.35910E-004	7	...........	-327.63
	2983	59.68	-3.20157E-002	2.95933E-009	0.00000E+000	-3.40000E-002	4.58410E-004	7	...........	-327.63
	2984	59.7	-3.00499E-002	2.95100E-009	0.00000E+000	-3.20000E-002	4.52576E-004	7	...........	-327.63
	2985	59.72	-2.80591E-002	2.88433E-009	0.00000E+000	-3.00000E-002	4.65076E-004	7	...........	-327.63
	2986	59.74	-2.60707E-002	3.05517E-009	0.00000E+000	-2.80000E-002	4.39243E-004	7	...........	-327.63
	2987	59.76	-2.40849E-002	3.11767E-009	0.00000E+000	-2.60000E-002	4.55910E-004	7	...........	-327.63
	2988	59.78	-2.20853E-002	3.01350E-009	0.00000E+000	-2.40000E-002	4.46743E-004	7	...........	-327.63
	2989	59.8	-2.00874E-002	3.08433E-009	0.00000E+000	-2.20000E-002	4.42576E-004	7	...........	-327.63
	2990	59.82	-1.81078E-002	3.38434E-009	0.00000E+000	-2.00000E-002	4.38410E-004	7	...........	-327.63
	2991	59.84	-1.61053E-002	3.30934E-009	0.00000E+000	-1.80000E-002	4.57576E-004	7	...........	-327.63
	2992	59.86	-1.41157E-002	3.39268E-009	0.00000E+000	-1.60000E-002	4.43410E-004	7	...........	-327.63
	2993	59.88	-1.21378E-002	3.58019E-009	0.00000E+000	-1.40000E-002	4.35076E-004	7	...........	-327.63
	2994	59.9	-1.01345E-002	3.46351E-009	0.00000E+000	-1.20000E-002	4.70910E-004	7	...........	-327.63
	2995	59.92	-8.15158E-003	3.47185E-009	0.00000E+000	-1.00000E-002	4.35910E-004	7	...........	-327.63
	2996	59.94	-6.15533E-003	3.56352E-009	0.00000E+000	-8.00000E-003	4.50910E-004	7	...........	-327.63
	2997	59.96	-4.16366E-003	3.63435E-009	0.00000E+000	-6.00000E-003	4.60910E-004	7	...........	-327.63
	2998	59.98	-2.17324E-003	3.68019E-009	0.00000E+000	-4.00000E-003	4.45076E-004	7	...........	-327.63
	2999	60	-1.83243E-004	3.80936E-009	0.00000E+000	-2.00000E-003	4.80910E-004	7	...........	-327.63
	3000	60.02	1.82634E-003	3.85936E-009	0.00000E+000	0.00000E+000	4.57576E-004	7	...........	-327.63