File: Gamry/CV_fullWindow_newBuffer_1.DTA
EXPLAIN
TAG	CV
TITLE	LABEL	Cyclic Voltammetry	Test &Identifier
DATE	LABEL	5-12-2022	Date
TIME	LABEL	13:25:38	Time
NOTES	NOTES	1	&Notes...

PSTAT	PSTAT	REF3000-20110	Potentiostat
VINIT	POTEN	0.00000E+000	F	Initial &E (V)
VLIMIT1	POTEN	5.00000E-001	F	Scan Limit &1 (V)
VLIMIT2	POTEN	-5.00000E-001	F	Scan Limit &2 (V)
VFINAL	POTEN	0.00000E+000	F	Final &E (V)
SCANRATE	QUANT	9.99998E+001	&Scan Rate (mV/s)
STEPSIZE	QUANT	2.00000E+000	St&ep Size (mV)
CYCLES	IQUANT	3	C&ycles (#)
IMODE	SELECTOR	0	I/E Range &Mode
IRANGE	QUANT	3.00000E-001	&Max Current (mA)
AREA	QUANT	1.00000E+000	Electrode &Area (cm^2)
ELECTRODETYPE	SELECTOR	0	Electrode Type
STRIPPING	TOGGLE	F	Used for Stripping
CONDIT	TWOPARAM	F	1.50000E+001	0.00000E+000	Conditionin&g	Time(s)	E(V)
DELAY	TWOPARAM	F	3.00000E+001	0.00000E+000	Init. De&lay	Time(s)	Stab.(mV/s)
EQDELAY	QUANT	0.00000E+000	Equil. &Time (s)
IRCOMP	SELECTOR	0	IRCom&p
PFCOR	QUANT	5.00000E+001	PF Corr. (ohm)
SAMPLINGMODE	SELECTOR	1	Sampling &Mode
EOC	QUANT	0	Open Circuit (V)
PSTATMODEL	IQUANT	5	Pstat Model
PSTATSECTION	LABEL	REF3000-20110	Pstat Section
PSTATSERIALNO	LABEL	20110	Pstat Serial Number
CTRLMODE	IQUANT	1	Control Mode
ELECTROMETER	IQUANT	0	RE=0 or CS=1
IESTAB	IQUANT	2	I/E Stability
CASPEED	IQUANT	4	Control Amp Speed
CONVENTION	IQUANT	1	Current Convention
ICHRANGE	IQUANT	2	Ich Range
ICHRANGEMODE	TOGGLE	F	Ich Auto Range
ICHOFFSETENABLE	TOGGLE	F	Ich Offset Enable
ICHOFFSET	QUANT	0	Ich Offset (V)
ICHFILTER	IQUANT	2	Ich Filter
VCHRANGE	IQUANT	2	Vch Range
VCHRANGEMODE	TOGGLE	F	Vch Auto Range
VCHOFFSETENABLE	TOGGLE	F	Vch Offset Enable
VCHOFFSET	QUANT	0	Vch Offset (V)
VCHFILTER	IQUANT	2	Vch Filter
ACHRANGE	IQUANT	2	Ach Range
ACHOFFSETENABLE	TOGGLE	F	Ach Offset Enable
ACHOFFSET	QUANT	0	Ach Offset (V)
ACHFILTER	IQUANT	1	Ach Filter
IERANGELOWERLIMIT	IQUANT	2	I/E Range Lower Limit
IERANGEMODE	TOGGLE	T	I/E AutoRange
IERANGE	IQUANT	9	I/E Range
POSFEEDENABLE	TOGGLE	F	Positive Feedback IR Comp
POSFEEDRESISTANCE	QUANT	0	Positive Feedback Resistance (ohm)
ACHSELECT	IQUANT	4	Ach Select
SENSECABLEID	IQUANT	14	Sense Cable ID
PWRCABLEID	IQUANT	7	Power Cable ID
DCCALDATE	LABEL	8/9/2022	DC Calibration Date
ACCALDATE	LABEL	8/9/2022	AC Calibration Date
THERMOSELECT	IQUANT	1	Thermo Select
FRAMEWORKVERSION	LABEL	7.9.0	Framework Version
INSTRUMENTVERSION	LABEL	4.60	Instrument Version
COMPLIANCEVOLTAGE	IQUANT	0	Compliance Voltage
CURVE1	TABLE
	Pt	T	Vf	Im	Vu	Sig	Ach	IERange	Over	Temp
	#	s	V vs. Ref.	A	V	V	V	#	bits	deg C
	0	0.02	-4.39069E-003	-8.27571E-008	0.00000E+000	0.00000E+000	7.13410E-004	9	...........	-327.63
	2	0.06	-3.01993E-004	2.03725E-008	0.00000E+000	4.00000E-003	7.25076E-004	7	...........	-327.63
	4	0.1	3.73092E-003	2.03058E-008	0.00000E+000	8.00000E-003	7.32576E-004	7	...........	-327.63
	6	0.14	7.77217E-003	2.02141E-008	0.00000E+000	1.20000E-002	7.15910E-004	7	...........	-327.63
	8	0.18	1.17876E-002	2.03433E-008	0.00000E+000	1.60000E-002	7.12576E-004	7	...........	-327.63
	10	0.22	1.58001E-002	1.98808E-008	0.00000E+000	2.00000E-002	7.33410E-004	7	...........	-327.63
	12	0.26	1.98105E-002	1.99141E-008	0.00000E+000	2.40000E-002	7.41743E-004	7	...........	-327.63
	14	0.3	2.38413E-002	1.99725E-008	0.00000E+000	2.80000E-002	7.38410E-004	7	...........	-327.63
	16	0.34	2.78555E-002	1.97183E-008	0.00000E+000	3.20000E-002	7.18410E-004	7	...........	-327.63
	18	0.38	3.18905E-002	1.97600E-008	0.00000E+000	3.60000E-002	7.13410E-004	7	...........	-327.63
	20	0.42	3.59101E-002	1.96183E-008	0.00000E+000	4.00000E-002	7.30910E-004	7	...........	-327.63
	22	0.46	3.98809E-002	1.97475E-008	0.00000E+000	4.40000E-002	7.02576E-004	7	...........	-327.63
	24	0.5	4.39176E-002	1.96099E-008	0.00000E+000	4.80000E-002	6.85076E-004	7	...........	-327.63
	26	0.54	4.79768E-002	1.93974E-008	0.00000E+000	5.20000E-002	7.25076E-004	7	...........	-327.63
	28	0.58	5.19551E-002	1.91474E-008	0.00000E+000	5.60000E-002	7.36743E-004	7	...........	-327.63
	30	0.62	5.59930E-002	1.91058E-008	0.00000E+000	6.00000E-002	7.36743E-004	7	...........	-327.63
	32	0.66	6.00130E-002	1.90266E-008	0.00000E+000	6.40000E-002	7.05076E-004	7	...........	-327.63
	34	0.7	6.40551E-002	1.88724E-008	0.00000E+000	6.80000E-002	7.18410E-004	7	...........	-327.63
	36	0.74	6.80680E-002	1.88099E-008	0.00000E+000	7.20000E-002	7.32576E-004	7	...........	-327.63
	38	0.78	7.20930E-002	1.87183E-008	0.00000E+000	7.60000E-002	7.30910E-004	7	...........	-327.63
	40	0.82	7.61230E-002	1.86682E-008	0.00000E+000	8.00000E-002	7.25076E-004	7	...........	-327.63
	42	0.86	8.01547E-002	1.85682E-008	0.00000E+000	8.40000E-002	7.25076E-004	7	...........	-327.63
	44	0.9	8.42730E-002	1.83099E-008	0.00000E+000	8.80000E-002	7.26743E-004	7	...........	-327.63
	46	0.94	8.82997E-002	1.81724E-008	0.00000E+000	9.20000E-002	7.20910E-004	7	...........	-327.63
	48	0.98	9.23068E-002	1.80557E-008	0.00000E+000	9.60000E-002	7.11743E-004	7	...........	-327.63
	50	1.02	9.63322E-002	1.78349E-008	0.00000E+000	1.00000E-001	7.31743E-004	7	...........	-327.63
	52	1.06	1.00370E-001	1.78182E-008	0.00000E+000	1.04000E-001	7.06743E-004	7	...........	-327.63
	54	1.1	1.04372E-001	1.78057E-008	0.00000E+000	1.08000E-001	7.28410E-004	7	...........	-327.63
	56	1.14	1.08393E-001	1.75890E-008	0.00000E+000	1.12000E-001	7.28410E-004	7	...........	-327.63
	58	1.18	1.12439E-001	1.75224E-008	0.00000E+000	1.16000E-001	7.22576E-004	7	...........	-327.63
	60	1.22	1.16447E-001	1.77140E-008	0.00000E+000	1.20000E-001	7.14243E-004	7	...........	-327.63
	62	1.26	1.20467E-001	1.72599E-008	0.00000E+000	1.24000E-001	7.32576E-004	7	...........	-327.63
	64	1.3	1.24484E-001	1.72515E-008	0.00000E+000	1.28000E-001	7.45910E-004	7	...........	-327.63
	66	1.34	1.28493E-001	1.70974E-008	0.00000E+000	1.32000E-001	7.28410E-004	7	...........	-327.63
	68	1.38	1.32534E-001	1.69015E-008	0.00000E+000	1.36000E-001	7.30910E-004	7	...........	-327.63
	70	1.42	1.36546E-001	1.67140E-008	0.00000E+000	1.40000E-001	7.30910E-004	7	...........	-327.63
	72	1.46	1.40541E-001	1.66848E-008	0.00000E+000	1.44000E-001	7.25910E-004	7	...........	-327.63
	74	1.5	1.44540E-001	1.64765E-008	0.00000E+000	1.48000E-001	7.40076E-004	7	...........	-327.63
	76	1.54	1.48588E-001	1.64515E-008	0.00000E+000	1.52000E-001	7.24243E-004	7	...........	-327.63
	78	1.58	1.52642E-001	1.62015E-008	0.00000E+000	1.56000E-001	7.35076E-004	7	...........	-327.63
	80	1.62	1.56713E-001	1.61348E-008	0.00000E+000	1.60000E-001	7.15910E-004	7	...........	-327.63
	82	1.66	1.60747E-001	1.60140E-008	0.00000E+000	1.64000E-001	7.19243E-004	7	...........	-327.63
	84	1.7	1.64736E-001	1.59306E-008	0.00000E+000	1.68000E-001	7.28410E-004	7	...........	-327.63
	86	1.74	1.68756E-001	1.58015E-008	0.00000E+000	1.72000E-001	7.00910E-004	7	...........	-327.63
	88	1.78	1.72785E-001	1.56598E-008	0.00000E+000	1.76000E-001	7.40076E-004	7	...........	-327.63
	90	1.82	1.76824E-001	1.56056E-008	0.00000E+000	1.80000E-001	7.36743E-004	7	...........	-327.63
	92	1.86	1.80845E-001	1.54806E-008	0.00000E+000	1.84000E-001	7.10076E-004	7	...........	-327.63
	94	1.9	1.84890E-001	1.55265E-008	0.00000E+000	1.88000E-001	7.15076E-004	7	...........	-327.63
	96	1.94	1.88924E-001	1.53056E-008	0.00000E+000	1.92000E-001	7.22576E-004	7	...........	-327.63
	98	1.98	1.92937E-001	1.50806E-008	0.00000E+000	1.96000E-001	7.24243E-004	7	...........	-327.63
	100	2.02	1.96962E-001	1.48639E-008	0.00000E+000	2.00000E-001	7.19243E-004	7	...........	-327.63
	102	2.06	2.01002E-001	1.48056E-008	0.00000E+000	2.04000E-001	7.15910E-004	7	...........	-327.63
	104	2.1	2.05016E-001	1.45348E-008	0.00000E+000	2.08000E-001	7.15076E-004	7	...........	-327.63
	106	2.14	2.09051E-001	1.45389E-008	0.00000E+000	2.12000E-001	7.16743E-004	7	...........	-327.63
	108	2.18	2.13108E-001	1.44389E-008	0.00000E+000	2.16000E-001	7.25076E-004	7	...........	-327.63
	110	2.22	2.17143E-001	1.39931E-008	0.00000E+000	2.20000E-001	7.07576E-004	7	...........	-327.63
	112	2.26	2.21170E-001	1.40056E-008	0.00000E+000	2.24000E-001	7.07576E-004	7	...........	-327.63
	114	2.3	2.25194E-001	1.37139E-008	0.00000E+000	2.28000E-001	7.27576E-004	7	...........	-327.63
	116	2.34	2.29243E-001	1.36264E-008	0.00000E+000	2.32000E-001	7.22576E-004	7	...........	-327.63
	118	2.38	2.33280E-001	1.35014E-008	0.00000E+000	2.36000E-001	7.29243E-004	7	...........	-327.63
	120	2.42	2.37329E-001	1.34139E-008	0.00000E+000	2.40000E-001	7.18410E-004	7	...........	-327.63
	122	2.46	2.41369E-001	1.31972E-008	0.00000E+000	2.44000E-001	7.15076E-004	7	...........	-327.63
	124	2.5	2.45375E-001	1.31430E-008	0.00000E+000	2.48000E-001	7.18410E-004	7	...........	-327.63
	126	2.54	2.49397E-001	1.30972E-008	0.00000E+000	2.52000E-001	7.25910E-004	7	...........	-327.63
	128	2.58	2.53445E-001	1.29555E-008	0.00000E+000	2.56000E-001	7.25076E-004	7	...h.......	-327.63
	130	2.62	2.57472E-001	1.25430E-008	0.00000E+000	2.60000E-001	7.19243E-004	7	...........	-327.63
	132	2.66	2.61528E-001	1.21847E-008	0.00000E+000	2.64000E-001	7.30076E-004	7	...h.......	-327.63
	134	2.7	2.65600E-001	1.20722E-008	0.00000E+000	2.68000E-001	7.10910E-004	7	...h.......	-327.63
	136	2.74	2.69639E-001	1.18638E-008	0.00000E+000	2.72000E-001	6.90910E-004	7	...h.......	-327.63
	138	2.78	2.73659E-001	1.18763E-008	0.00000E+000	2.76000E-001	7.28410E-004	7	...........	-327.63
	140	2.82	2.77710E-001	1.15972E-008	0.00000E+000	2.80000E-001	7.23410E-004	7	...h.......	-327.63
	142	2.86	2.81738E-001	1.14305E-008	0.00000E+000	2.84000E-001	7.31743E-004	7	...h.......	-327.63
	144	2.9	2.85796E-001	1.11888E-008	0.00000E+000	2.88000E-001	7.15910E-004	7	...h.......	-327.63
	146	2.94	2.89845E-001	1.12888E-008	0.00000E+000	2.92000E-001	7.23410E-004	7	...........	-327.63
	148	2.98	2.93873E-001	1.10138E-008	0.00000E+000	2.96000E-001	6.98410E-004	7	...........	-327.63
	150	3.02	2.97889E-001	1.10971E-008	0.00000E+000	3.00000E-001	7.20910E-004	7	...........	-327.63
	152	3.06	3.01899E-001	1.07305E-008	0.00000E+000	3.04000E-001	7.13410E-004	7	...........	-327.63
	154	3.1	3.05929E-001	1.06679E-008	0.00000E+000	3.08000E-001	7.25910E-004	7	...h.......	-327.63
	156	3.14	3.09940E-001	1.04054E-008	0.00000E+000	3.12000E-001	7.25910E-004	7	...h.......	-327.63
	158	3.18	3.13985E-001	1.04096E-008	0.00000E+000	3.16000E-001	7.40076E-004	7	...h.......	-327.63
	160	3.22	3.18032E-001	1.00804E-008	0.00000E+000	3.20000E-001	7.11743E-004	7	...h.......	-327.63
	162	3.26	3.22052E-001	9.99292E-009	0.00000E+000	3.24000E-001	7.29243E-004	7	...h.......	-327.63
	164	3.3	3.26099E-001	9.75542E-009	0.00000E+000	3.28000E-001	7.40076E-004	7	...h.......	-327.63
	166	3.34	3.30153E-001	9.75542E-009	0.00000E+000	3.32000E-001	7.25076E-004	7	...h.......	-327.63
	168	3.38	3.34178E-001	9.43457E-009	0.00000E+000	3.36000E-001	7.12576E-004	7	...h.......	-327.63
	170	3.42	3.38222E-001	9.21373E-009	0.00000E+000	3.40000E-001	7.03410E-004	7	...h.......	-327.63
	172	3.46	3.42271E-001	9.08872E-009	0.00000E+000	3.44000E-001	7.14243E-004	7	...h.......	-327.63
	174	3.5	3.46293E-001	8.85121E-009	0.00000E+000	3.48000E-001	7.13410E-004	7	...........	-327.63
	176	3.54	3.50324E-001	8.63454E-009	0.00000E+000	3.52000E-001	7.40076E-004	7	...h.......	-327.63
	178	3.58	3.54381E-001	8.38870E-009	0.00000E+000	3.56000E-001	7.09243E-004	7	...h.......	-327.63
	180	3.62	3.58420E-001	8.05952E-009	0.00000E+000	3.60000E-001	7.34243E-004	7	...h.......	-327.63
	182	3.66	3.62461E-001	7.90951E-009	0.00000E+000	3.64000E-001	7.25076E-004	7	...........	-327.63
	184	3.7	3.66531E-001	7.56783E-009	0.00000E+000	3.68000E-001	7.17576E-004	7	...........	-327.63
	186	3.74	3.70587E-001	7.27199E-009	0.00000E+000	3.72000E-001	7.18410E-004	7	...........	-327.63
	188	3.78	3.74652E-001	7.03031E-009	0.00000E+000	3.76000E-001	7.11743E-004	7	...........	-327.63
	190	3.82	3.78706E-001	6.87614E-009	0.00000E+000	3.80000E-001	7.24243E-004	7	...........	-327.63
	192	3.86	3.82728E-001	6.69280E-009	0.00000E+000	3.84000E-001	7.13410E-004	7	...........	-327.63
	194	3.9	3.86780E-001	6.35112E-009	0.00000E+000	3.88000E-001	7.25076E-004	7	...........	-327.63
	196	3.94	3.90866E-001	6.00528E-009	0.00000E+000	3.92000E-001	7.28410E-004	7	...........	-327.63
	198	3.98	3.94897E-001	5.79277E-009	0.00000E+000	3.96000E-001	7.27576E-004	7	...........	-327.63
	200	4.02	3.98934E-001	5.86360E-009	0.00000E+000	4.00000E-001	7.14243E-004	7	...........	-327.63
	202	4.06	4.02981E-001	5.63860E-009	0.00000E+000	4.04000E-001	6.96743E-004	7	...........	-327.63
	204	4.1	4.07028E-001	5.38442E-009	0.00000E+000	4.08000E-001	7.29243E-004	7	...........	-327.63
	206	4.14	4.11076E-001	5.21358E-009	0.00000E+000	4.12000E-001	7.36743E-004	7	...........	-327.63
	208	4.18	4.15144E-001	5.04691E-009	0.00000E+000	4.16000E-001	7.19243E-004	7	...........	-327.63
	210	4.22	4.19208E-001	4.87607E-009	0.00000E+000	4.20000E-001	7.26743E-004	7	...........	-327.63
	212	4.26	4.23233E-001	4.59689E-009	0.00000E+000	4.24000E-001	7.25076E-004	7	...........	-327.63
	214	4.3	4.27268E-001	4.62189E-009	0.00000E+000	4.28000E-001	7.25076E-004	7	...........	-327.63
	216	4.34	4.31314E-001	4.38855E-009	0.00000E+000	4.32000E-001	7.35076E-004	7	...........	-327.63
	218	4.38	4.35361E-001	4.34271E-009	0.00000E+000	4.36000E-001	7.12576E-004	7	...........	-327.63
	220	4.42	4.39407E-001	4.04270E-009	0.00000E+000	4.40000E-001	7.26743E-004	7	...........	-327.63
	222	4.46	4.43455E-001	4.00103E-009	0.00000E+000	4.44000E-001	7.13410E-004	7	...........	-327.63
	224	4.5	4.47497E-001	3.83436E-009	0.00000E+000	4.48000E-001	7.19243E-004	7	...........	-327.63
	226	4.54	4.51520E-001	3.49685E-009	0.00000E+000	4.52000E-001	7.31743E-004	7	...........	-327.63
	228	4.58	4.55577E-001	3.25101E-009	0.00000E+000	4.56000E-001	7.32576E-004	7	...........	-327.63
	230	4.62	4.59601E-001	3.09683E-009	0.00000E+000	4.60000E-001	7.17576E-004	7	...........	-327.63
	232	4.66	4.63643E-001	2.75515E-009	0.00000E+000	4.64000E-001	7.13410E-004	7	...........	-327.63
	234	4.7	4.67712E-001	2.69265E-009	0.00000E+000	4.68000E-001	7.14243E-004	7	...........	-327.63
	236	4.74	4.71750E-001	2.67182E-009	0.00000E+000	4.72000E-001	7.28410E-004	7	...........	-327.63
	238	4.78	4.75799E-001	2.38847E-009	0.00000E+000	4.76000E-001	7.26743E-004	7	...........	-327.63
	240	4.82	4.79843E-001	2.10096E-009	0.00000E+000	4.80000E-001	7.30076E-004	7	...........	-327.63
	242	4.86	4.83899E-001	1.84679E-009	0.00000E+000	4.84000E-001	7.18410E-004	7	...........	-327.63
	244	4.9	4.87965E-001	1.83845E-009	0.00000E+000	4.88000E-001	7.19243E-004	7	...........	-327.63
	246	4.94	4.92016E-001	1.58011E-009	0.00000E+000	4.92000E-001	7.30910E-004	7	...........	-327.63
	248	4.98	4.96080E-001	1.28010E-009	0.00000E+000	4.96000E-001	7.21743E-004	7	...........	-327.63
	250	5.02	5.00131E-001	9.25920E-010	0.00000E+000	5.00000E-001	7.20910E-004	7	...........	-327.63
	252	5.06	4.96200E-001	5.13404E-010	0.00000E+000	4.96000E-001	7.30910E-004	7	...........	-327.63
	254	5.1	4.92261E-001	5.71740E-010	0.00000E+000	4.92000E-001	7.36743E-004	7	...........	-327.63
	256	5.14	4.88321E-001	1.88392E-010	0.00000E+000	4.88000E-001	7.22576E-004	7	...........	-327.63
	258	5.18	4.84384E-001	1.71725E-010	0.00000E+000	4.84000E-001	7.45076E-004	7	...........	-327.63
	260	5.22	4.80442E-001	3.42196E-011	0.00000E+000	4.80000E-001	6.95910E-004	7	...........	-327.63
	262	5.26	4.76504E-001	-2.11623E-010	0.00000E+000	4.76000E-001	7.19243E-004	7	...........	-327.63
	264	5.3	4.72568E-001	-3.61628E-010	0.00000E+000	4.72000E-001	7.26743E-004	7	...........	-327.63
	266	5.34	4.68613E-001	-5.94970E-010	0.00000E+000	4.68000E-001	6.97576E-004	7	...........	-327.63
	268	5.38	4.64665E-001	-7.07475E-010	0.00000E+000	4.64000E-001	7.15076E-004	7	...........	-327.63
	270	5.42	4.60716E-001	-9.86652E-010	0.00000E+000	4.60000E-001	7.25076E-004	7	...........	-327.63
	272	5.46	4.56768E-001	-1.06582E-009	0.00000E+000	4.56000E-001	7.23410E-004	7	...........	-327.63
	274	5.5	4.52821E-001	-1.29083E-009	0.00000E+000	4.52000E-001	7.10910E-004	7	...........	-327.63
	276	5.54	4.48882E-001	-1.29500E-009	0.00000E+000	4.48000E-001	7.14243E-004	7	...........	-327.63
	278	5.58	4.44931E-001	-1.47834E-009	0.00000E+000	4.44000E-001	7.18410E-004	7	...........	-327.63
	280	5.62	4.40977E-001	-1.68668E-009	0.00000E+000	4.40000E-001	6.98410E-004	7	...........	-327.63
	282	5.66	4.37008E-001	-1.67834E-009	0.00000E+000	4.36000E-001	7.08410E-004	7	...........	-327.63
	284	5.7	4.33062E-001	-1.81168E-009	0.00000E+000	4.32000E-001	7.06743E-004	7	...........	-327.63
	286	5.74	4.29116E-001	-2.03669E-009	0.00000E+000	4.28000E-001	7.11743E-004	7	...........	-327.63
	288	5.78	4.25170E-001	-2.20753E-009	0.00000E+000	4.24000E-001	7.19243E-004	7	...........	-327.63
	290	5.82	4.21229E-001	-2.62838E-009	0.00000E+000	4.20000E-001	7.34243E-004	7	...........	-327.63
	292	5.86	4.17277E-001	-2.77005E-009	0.00000E+000	4.16000E-001	7.14243E-004	7	...........	-327.63
	294	5.9	4.13306E-001	-3.04506E-009	0.00000E+000	4.12000E-001	7.12576E-004	7	...........	-327.63
	296	5.94	4.09370E-001	-3.10340E-009	0.00000E+000	4.08000E-001	7.31743E-004	7	...........	-327.63
	298	5.98	4.05415E-001	-3.19923E-009	0.00000E+000	4.04000E-001	7.22576E-004	7	...........	-327.63
	300	6.02	4.01464E-001	-3.36591E-009	0.00000E+000	4.00000E-001	7.22576E-004	7	...........	-327.63
	302	6.06	3.97504E-001	-3.53675E-009	0.00000E+000	3.96000E-001	7.20076E-004	7	...........	-327.63
	304	6.1	3.93570E-001	-3.68675E-009	0.00000E+000	3.92000E-001	7.04243E-004	7	...........	-327.63
	306	6.14	3.89588E-001	-3.78676E-009	0.00000E+000	3.88000E-001	7.15910E-004	7	...........	-327.63
	308	6.18	3.85636E-001	-3.90343E-009	0.00000E+000	3.84000E-001	7.27576E-004	7	...........	-327.63
	310	6.22	3.81685E-001	-3.95343E-009	0.00000E+000	3.80000E-001	7.24243E-004	7	...........	-327.63
	312	6.26	3.77713E-001	-4.23677E-009	0.00000E+000	3.76000E-001	7.01743E-004	7	...........	-327.63
	314	6.3	3.73757E-001	-4.44928E-009	0.00000E+000	3.72000E-001	7.41743E-004	7	...........	-327.63
	316	6.34	3.69824E-001	-4.53678E-009	0.00000E+000	3.68000E-001	7.30076E-004	7	...........	-327.63
	318	6.38	3.65865E-001	-4.77013E-009	0.00000E+000	3.64000E-001	7.13410E-004	7	...........	-327.63
	320	6.42	3.61883E-001	-4.86180E-009	0.00000E+000	3.60000E-001	7.13410E-004	7	...........	-327.63
	322	6.46	3.57927E-001	-5.14097E-009	0.00000E+000	3.56000E-001	7.16743E-004	7	...........	-327.63
	324	6.5	3.53976E-001	-5.17847E-009	0.00000E+000	3.52000E-001	7.25910E-004	7	...........	-327.63
	326	6.54	3.50020E-001	-5.29098E-009	0.00000E+000	3.48000E-001	7.22576E-004	7	...........	-327.63
	328	6.58	3.46079E-001	-5.38682E-009	0.00000E+000	3.44000E-001	7.07576E-004	7	...........	-327.63
	330	6.62	3.42135E-001	-5.69516E-009	0.00000E+000	3.40000E-001	7.15910E-004	7	...........	-327.63
	332	6.66	3.38144E-001	-5.79100E-009	0.00000E+000	3.36000E-001	7.26743E-004	7	...........	-327.63
	334	6.7	3.34184E-001	-5.86600E-009	0.00000E+000	3.32000E-001	7.25910E-004	7	...........	-327.63
	336	6.74	3.30223E-001	-6.13268E-009	0.00000E+000	3.28000E-001	7.15910E-004	7	...........	-327.63
	338	6.78	3.26268E-001	-6.27435E-009	0.00000E+000	3.24000E-001	7.28410E-004	7	...........	-327.63
	340	6.82	3.22297E-001	-6.61603E-009	0.00000E+000	3.20000E-001	7.11743E-004	7	...........	-327.63
	342	6.86	3.18365E-001	-6.56603E-009	0.00000E+000	3.16000E-001	7.08410E-004	7	...........	-327.63
	344	6.9	3.14393E-001	-6.94521E-009	0.00000E+000	3.12000E-001	7.15910E-004	7	...........	-327.63
	346	6.94	3.10415E-001	-6.98271E-009	0.00000E+000	3.08000E-001	7.25076E-004	7	...........	-327.63
	348	6.98	3.06470E-001	-7.31605E-009	0.00000E+000	3.04000E-001	7.25910E-004	7	...........	-327.63
	350	7.02	3.02510E-001	-7.47023E-009	0.00000E+000	3.00000E-001	7.11743E-004	7	...........	-327.63
	352	7.06	2.98548E-001	-7.57440E-009	0.00000E+000	2.96000E-001	7.09243E-004	7	...........	-327.63
	354	7.1	2.94596E-001	-7.69940E-009	0.00000E+000	2.92000E-001	7.19243E-004	7	...........	-327.63
	356	7.14	2.90625E-001	-7.81191E-009	0.00000E+000	2.88000E-001	7.10910E-004	7	...........	-327.63
	358	7.18	2.86645E-001	-7.82441E-009	0.00000E+000	2.84000E-001	7.28410E-004	7	...........	-327.63
	360	7.22	2.82663E-001	-7.91191E-009	0.00000E+000	2.80000E-001	7.00910E-004	7	...........	-327.63
	362	7.26	2.78693E-001	-7.99525E-009	0.00000E+000	2.76000E-001	7.20910E-004	7	...........	-327.63
	364	7.3	2.74702E-001	-7.97441E-009	0.00000E+000	2.72000E-001	7.23410E-004	7	...........	-327.63
	366	7.34	2.70749E-001	-8.14942E-009	0.00000E+000	2.68000E-001	7.08410E-004	7	...........	-327.63
	368	7.38	2.66766E-001	-8.04942E-009	0.00000E+000	2.64000E-001	7.20910E-004	7	...........	-327.63
	370	7.42	2.62767E-001	-8.04525E-009	0.00000E+000	2.60000E-001	7.25076E-004	7	...........	-327.63
	372	7.46	2.58773E-001	-8.29526E-009	0.00000E+000	2.56000E-001	7.20076E-004	7	...........	-327.63
	374	7.5	2.54794E-001	-8.18275E-009	0.00000E+000	2.52000E-001	7.18410E-004	7	...........	-327.63
	376	7.54	2.50801E-001	-8.28276E-009	0.00000E+000	2.48000E-001	7.29243E-004	7	...........	-327.63
	378	7.58	2.46810E-001	-8.29526E-009	0.00000E+000	2.44000E-001	7.22576E-004	7	...........	-327.63
	380	7.62	2.42840E-001	-8.37026E-009	0.00000E+000	2.40000E-001	7.24243E-004	7	...........	-327.63
	382	7.66	2.38844E-001	-8.47443E-009	0.00000E+000	2.36000E-001	7.17576E-004	7	...........	-327.63
	384	7.7	2.34834E-001	-8.45360E-009	0.00000E+000	2.32000E-001	7.24243E-004	7	...........	-327.63
	386	7.74	2.30838E-001	-8.54110E-009	0.00000E+000	2.28000E-001	7.25910E-004	7	...........	-327.63
	388	7.78	2.26843E-001	-8.68277E-009	0.00000E+000	2.24000E-001	7.24243E-004	7	...........	-327.63
	390	7.82	2.22856E-001	-8.64944E-009	0.00000E+000	2.20000E-001	7.15076E-004	7	...........	-327.63
	392	7.86	2.18869E-001	-8.68277E-009	0.00000E+000	2.16000E-001	7.29243E-004	7	...........	-327.63
	394	7.9	2.14885E-001	-8.84111E-009	0.00000E+000	2.12000E-001	7.05076E-004	7	...........	-327.63
	396	7.94	2.10889E-001	-8.99528E-009	0.00000E+000	2.08000E-001	7.34243E-004	7	...........	-327.63
	398	7.98	2.06882E-001	-9.24529E-009	0.00000E+000	2.04000E-001	7.18410E-004	7	...........	-327.63
	400	8.02	2.02924E-001	-9.24113E-009	0.00000E+000	2.00000E-001	7.18410E-004	7	...........	-327.63
	402	8.06	1.98938E-001	-9.16612E-009	0.00000E+000	1.96000E-001	7.30076E-004	7	...........	-327.63
	404	8.1	1.94945E-001	-9.36196E-009	0.00000E+000	1.92000E-001	7.20076E-004	7	...........	-327.63
	406	8.14	1.90980E-001	-9.59531E-009	0.00000E+000	1.88000E-001	7.29243E-004	7	...........	-327.63
	408	8.18	1.86993E-001	-9.60364E-009	0.00000E+000	1.84000E-001	7.18410E-004	7	...........	-327.63
	410	8.22	1.83007E-001	-9.61614E-009	0.00000E+000	1.80000E-001	7.25910E-004	7	...........	-327.63
	412	8.26	1.79018E-001	-9.69531E-009	0.00000E+000	1.76000E-001	7.24243E-004	7	...........	-327.63
	414	8.3	1.75035E-001	-9.57864E-009	0.00000E+000	1.72000E-001	7.29243E-004	7	...........	-327.63
	416	8.34	1.71036E-001	-9.79948E-009	0.00000E+000	1.68000E-001	7.15076E-004	7	...........	-327.63
	418	8.38	1.67051E-001	-9.70364E-009	0.00000E+000	1.64000E-001	7.08410E-004	7	...........	-327.63
	420	8.42	1.63070E-001	-9.86615E-009	0.00000E+000	1.60000E-001	7.24243E-004	7	...........	-327.63
	422	8.46	1.59056E-001	-9.69114E-009	0.00000E+000	1.56000E-001	7.28410E-004	7	...........	-327.63
	424	8.5	1.55041E-001	-9.72864E-009	0.00000E+000	1.52000E-001	7.14243E-004	7	...........	-327.63
	426	8.54	1.51071E-001	-9.54114E-009	0.00000E+000	1.48000E-001	7.15076E-004	7	...........	-327.63
	428	8.58	1.47051E-001	-9.55364E-009	0.00000E+000	1.44000E-001	7.15076E-004	7	...........	-327.63
	430	8.62	1.43042E-001	-9.60364E-009	0.00000E+000	1.40000E-001	7.10910E-004	7	...........	-327.63
	432	8.66	1.39043E-001	-9.54530E-009	0.00000E+000	1.36000E-001	7.29243E-004	7	...........	-327.63
	434	8.7	1.35023E-001	-9.62031E-009	0.00000E+000	1.32000E-001	7.05076E-004	7	...........	-327.63
	436	8.74	1.30999E-001	-9.57447E-009	0.00000E+000	1.28000E-001	7.20076E-004	7	...........	-327.63
	438	8.78	1.27001E-001	-9.56197E-009	0.00000E+000	1.24000E-001	7.23410E-004	7	...........	-327.63
	440	8.82	1.22972E-001	-9.78698E-009	0.00000E+000	1.20000E-001	7.31743E-004	7	...........	-327.63
	442	8.86	1.18952E-001	-9.82031E-009	0.00000E+000	1.16000E-001	6.94243E-004	7	...........	-327.63
	444	8.9	1.14970E-001	-9.64114E-009	0.00000E+000	1.12000E-001	7.16743E-004	7	...........	-327.63
	446	8.94	1.10963E-001	-9.84531E-009	0.00000E+000	1.08000E-001	7.39243E-004	7	...........	-327.63
	448	8.98	1.06945E-001	-9.69948E-009	0.00000E+000	1.04000E-001	7.13410E-004	7	...........	-327.63
	450	9.02	1.02931E-001	-9.69114E-009	0.00000E+000	1.00000E-001	7.30076E-004	7	...........	-327.63
	452	9.06	9.89572E-002	-9.75365E-009	0.00000E+000	9.60000E-002	7.36743E-004	7	...........	-327.63
	454	9.1	9.49326E-002	-9.69531E-009	0.00000E+000	9.20000E-002	7.26743E-004	7	...........	-327.63
	456	9.14	9.09368E-002	-9.74531E-009	0.00000E+000	8.80000E-002	7.40076E-004	7	...........	-327.63
	458	9.18	8.69467E-002	-9.94115E-009	0.00000E+000	8.40000E-002	7.12576E-004	7	...........	-327.63
	460	9.22	8.29197E-002	-9.84531E-009	0.00000E+000	8.00000E-002	7.07576E-004	7	...........	-327.63
	462	9.26	7.89222E-002	-9.88282E-009	0.00000E+000	7.60000E-002	7.18410E-004	7	...........	-327.63
	464	9.3	7.49143E-002	-9.92032E-009	0.00000E+000	7.20000E-002	7.25910E-004	7	...........	-327.63
	466	9.34	7.09055E-002	-9.89532E-009	0.00000E+000	6.80000E-002	7.43410E-004	7	...........	-327.63
	468	9.38	6.68876E-002	-9.92032E-009	0.00000E+000	6.40000E-002	7.11743E-004	7	...........	-327.63
	470	9.42	6.29230E-002	-9.77865E-009	0.00000E+000	6.00000E-002	7.14243E-004	7	...........	-327.63
	472	9.46	5.89118E-002	-9.79115E-009	0.00000E+000	5.60000E-002	7.35076E-004	7	...........	-327.63
	474	9.5	5.48784E-002	-9.72448E-009	0.00000E+000	5.20000E-002	7.03410E-004	7	...........	-327.63
	476	9.54	5.08697E-002	-9.61197E-009	0.00000E+000	4.80000E-002	7.05076E-004	7	...........	-327.63
	478	9.58	4.69093E-002	-9.59114E-009	0.00000E+000	4.40000E-002	7.20076E-004	7	...........	-327.63
	480	9.62	4.29084E-002	-9.49947E-009	0.00000E+000	4.00000E-002	7.25076E-004	7	...........	-327.63
	482	9.66	3.89193E-002	-9.52447E-009	0.00000E+000	3.60000E-002	6.99243E-004	7	...........	-327.63
	484	9.7	3.49047E-002	-9.32863E-009	0.00000E+000	3.20000E-002	7.40076E-004	7	...........	-327.63
	486	9.74	3.08643E-002	-9.18696E-009	0.00000E+000	2.80000E-002	7.15076E-004	7	...........	-327.63
	488	9.78	2.68351E-002	-9.10779E-009	0.00000E+000	2.40000E-002	7.28410E-004	7	...........	-327.63
	490	9.82	2.27822E-002	-8.97862E-009	0.00000E+000	2.00000E-002	7.16743E-004	7	...........	-327.63
	492	9.86	1.87488E-002	-9.02445E-009	0.00000E+000	1.60000E-002	7.45076E-004	7	...........	-327.63
	494	9.9	1.47326E-002	-9.08695E-009	0.00000E+000	1.20000E-002	7.15076E-004	7	...........	-327.63
	496	9.94	1.07334E-002	-8.99945E-009	0.00000E+000	8.00000E-003	7.25910E-004	7	...........	-327.63
	498	9.98	6.70259E-003	-8.96612E-009	0.00000E+000	4.00000E-003	7.23410E-004	7	...........	-327.63
	500	10.02	2.69717E-003	-8.73694E-009	0.00000E+000	0.00000E+000	7.19243E-004	7	...........	-327.63
	502	10.06	-1.32033E-003	-8.79111E-009	0.00000E+000	-4.00000E-003	7.28410E-004	7	...........	-327.63
	504	10.1	-5.33241E-003	-8.83278E-009	0.00000E+000	-8.00000E-003	7.15910E-004	7	...........	-327.63
	506	10.14	-9.33366E-003	-8.64527E-009	0.00000E+000	-1.20000E-002	7.15910E-004	7	...........	-327.63
	508	10.18	-1.33732E-002	-8.48693E-009	0.00000E+000	-1.60000E-002	7.04243E-004	7	...........	-327.63
	510	10.22	-1.74082E-002	-8.61194E-009	0.00000E+000	-2.00000E-002	7.05910E-004	7	...........	-327.63
	512	10.26	-2.14416E-002	-8.32026E-009	0.00000E+000	-2.40000E-002	7.24243E-004	7	...........	-327.63
	514	10.3	-2.54732E-002	-8.32026E-009	0.00000E+000	-2.80000E-002	7.13410E-004	7	...........	-327.63
	516	10.34	-2.94803E-002	-8.29109E-009	0.00000E+000	-3.20000E-002	7.20076E-004	7	...........	-327.63
	518	10.38	-3.35103E-002	-7.97024E-009	0.00000E+000	-3.60000E-002	7.19243E-004	7	...........	-327.63
	520	10.42	-3.74745E-002	-7.87441E-009	0.00000E+000	-4.00000E-002	7.15076E-004	7	...........	-327.63
	522	10.46	-4.15428E-002	-7.83691E-009	0.00000E+000	-4.40000E-002	7.10910E-004	7	...........	-327.63
	524	10.5	-4.55387E-002	-7.64107E-009	0.00000E+000	-4.80000E-002	6.92576E-004	7	...........	-327.63
	526	10.54	-4.95712E-002	-7.65357E-009	0.00000E+000	-5.20000E-002	7.15076E-004	7	...........	-327.63
	528	10.58	-5.35841E-002	-7.39939E-009	0.00000E+000	-5.60000E-002	7.04243E-004	7	...........	-327.63
	530	10.62	-5.75341E-002	-7.39106E-009	0.00000E+000	-6.00000E-002	7.22576E-004	7	...........	-327.63
	532	10.66	-6.16066E-002	-7.27439E-009	0.00000E+000	-6.40000E-002	7.11743E-004	7	...........	-327.63
	534	10.7	-6.55916E-002	-7.14105E-009	0.00000E+000	-6.80000E-002	7.35076E-004	7	...........	-327.63
	536	10.74	-6.96020E-002	-7.13271E-009	0.00000E+000	-7.20000E-002	7.01743E-004	7	...........	-327.63
	538	10.78	-7.36453E-002	-6.97854E-009	0.00000E+000	-7.60000E-002	7.23410E-004	7	...........	-327.63
	540	10.82	-7.76874E-002	-6.93687E-009	0.00000E+000	-8.00000E-002	7.25910E-004	7	...........	-327.63
	542	10.86	-8.17141E-002	-6.83270E-009	0.00000E+000	-8.40000E-002	7.15076E-004	7	...........	-327.63
	544	10.9	-8.57524E-002	-6.68270E-009	0.00000E+000	-8.80000E-002	6.86743E-004	7	...........	-327.63
	546	10.94	-8.97491E-002	-6.81187E-009	0.00000E+000	-9.20000E-002	7.38410E-004	7	...........	-327.63
	548	10.98	-9.37320E-002	-6.56186E-009	0.00000E+000	-9.60000E-002	7.30076E-004	7	...........	-327.63
	550	11.02	-9.77116E-002	-6.44102E-009	0.00000E+000	-1.00000E-001	7.34243E-004	7	...........	-327.63
	552	11.06	-1.01774E-001	-6.57019E-009	0.00000E+000	-1.04000E-001	7.36743E-004	7	...........	-327.63
	554	11.1	-1.05796E-001	-6.42435E-009	0.00000E+000	-1.08000E-001	7.23410E-004	7	...........	-327.63
	556	11.14	-1.09796E-001	-6.15351E-009	0.00000E+000	-1.12000E-001	7.07576E-004	7	...........	-327.63
	558	11.18	-1.13858E-001	-6.20351E-009	0.00000E+000	-1.16000E-001	7.11743E-004	7	...........	-327.63
	560	11.22	-1.17845E-001	-5.91184E-009	0.00000E+000	-1.20000E-001	7.28410E-004	7	...........	-327.63
	562	11.26	-1.21917E-001	-5.93267E-009	0.00000E+000	-1.24000E-001	7.30910E-004	7	...........	-327.63
	564	11.3	-1.25956E-001	-5.68683E-009	0.00000E+000	-1.28000E-001	7.10910E-004	7	...........	-327.63
	566	11.34	-1.29971E-001	-5.74516E-009	0.00000E+000	-1.32000E-001	7.48410E-004	7	...........	-327.63
	568	11.38	-1.34020E-001	-5.35348E-009	0.00000E+000	-1.36000E-001	7.31743E-004	7	...........	-327.63
	570	11.42	-1.38059E-001	-5.09514E-009	0.00000E+000	-1.40000E-001	7.24243E-004	7	...........	-327.63
	572	11.46	-1.42081E-001	-5.25764E-009	0.00000E+000	-1.44000E-001	7.30910E-004	7	...........	-327.63
	574	11.5	-1.44605E-001	-5.25348E-009	0.00000E+000	-1.48000E-001	7.13410E-004	7	...........	-327.63
	576	11.54	-1.47873E-001	-5.00347E-009	0.00000E+000	-1.52000E-001	7.30076E-004	7	...........	-327.63
	578	11.58	-1.52042E-001	-4.67012E-009	0.00000E+000	-1.56000E-001	7.33410E-004	7	...........	-327.63
	580	11.62	-1.56726E-001	-4.67429E-009	0.00000E+000	-1.60000E-001	7.14243E-004	7	...........	-327.63
	582	11.66	-1.59659E-001	-4.43261E-009	0.00000E+000	-1.64000E-001	7.20076E-004	7	...........	-327.63
	584	11.7	-1.64170E-001	-4.27844E-009	0.00000E+000	-1.68000E-001	7.12576E-004	7	...........	-327.63
	586	11.74	-1.68284E-001	-4.06177E-009	0.00000E+000	-1.72000E-001	7.20910E-004	7	...........	-327.63
	588	11.78	-1.72792E-001	-3.86593E-009	0.00000E+000	-1.76000E-001	7.30076E-004	7	...........	-327.63
	590	11.82	-1.76915E-001	-3.45341E-009	0.00000E+000	-1.80000E-001	7.10910E-004	7	...........	-327.63
	592	11.86	-1.81046E-001	-3.38257E-009	0.00000E+000	-1.84000E-001	7.23410E-004	7	...........	-327.63
	594	11.9	-1.85144E-001	-3.23257E-009	0.00000E+000	-1.88000E-001	7.01743E-004	7	...........	-327.63
	596	11.94	-1.88961E-001	-2.88672E-009	0.00000E+000	-1.92000E-001	7.30910E-004	7	...........	-327.63
	598	11.98	-1.92583E-001	-2.78672E-009	0.00000E+000	-1.96000E-001	7.27576E-004	7	...........	-327.63
	600	12.02	-1.96287E-001	-2.64505E-009	0.00000E+000	-2.00000E-001	7.02576E-004	7	...........	-327.63
	602	12.06	-1.99649E-001	-2.73672E-009	0.00000E+000	-2.04000E-001	7.26743E-004	7	...........	-327.63
	604	12.1	-2.04453E-001	-2.48254E-009	0.00000E+000	-2.08000E-001	7.03410E-004	7	...........	-327.63
	606	12.14	-2.08962E-001	-2.39504E-009	0.00000E+000	-2.12000E-001	7.26743E-004	7	...........	-327.63
	608	12.18	-2.13083E-001	-2.30753E-009	0.00000E+000	-2.16000E-001	7.17576E-004	7	...........	-327.63
	610	12.22	-2.17181E-001	-1.99086E-009	0.00000E+000	-2.20000E-001	7.20910E-004	7	...........	-327.63
	612	12.26	-2.21298E-001	-2.18670E-009	0.00000E+000	-2.24000E-001	7.25910E-004	7	...........	-327.63
	614	12.3	-2.25444E-001	-1.98252E-009	0.00000E+000	-2.28000E-001	7.32576E-004	7	...........	-327.63
	616	12.34	-2.29589E-001	-1.77001E-009	0.00000E+000	-2.32000E-001	6.91743E-004	7	...........	-327.63
	618	12.38	-2.33678E-001	-1.39917E-009	0.00000E+000	-2.36000E-001	7.43410E-004	7	...........	-327.63
	620	12.42	-2.37812E-001	-1.44917E-009	0.00000E+000	-2.40000E-001	7.22576E-004	7	...........	-327.63
	622	12.46	-2.40812E-001	-1.11999E-009	0.00000E+000	-2.44000E-001	7.20076E-004	7	...........	-327.63
	624	12.5	-2.44468E-001	-1.09499E-009	0.00000E+000	-2.48000E-001	7.18410E-004	7	...........	-327.63
	626	12.54	-2.48416E-001	-1.03249E-009	0.00000E+000	-2.52000E-001	7.28410E-004	7	...........	-327.63
	628	12.58	-2.53074E-001	-6.19971E-010	0.00000E+000	-2.56000E-001	7.16743E-004	7	...........	-327.63
	630	12.62	-2.56337E-001	-5.15801E-010	0.00000E+000	-2.60000E-001	7.22576E-004	7	...........	-327.63
	632	12.66	-2.61092E-001	-1.44954E-010	0.00000E+000	-2.64000E-001	7.33410E-004	7	...........	-327.63
	634	12.7	-2.64820E-001	-8.24514E-011	0.00000E+000	-2.68000E-001	7.08410E-004	7	...........	-327.63
	636	12.74	-2.68324E-001	-1.03286E-010	0.00000E+000	-2.72000E-001	7.23410E-004	7	...........	-327.63
	638	12.78	-2.73102E-001	3.17564E-010	0.00000E+000	-2.76000E-001	7.20076E-004	7	...........	-327.63
	640	12.82	-2.77023E-001	6.33874E-011	0.00000E+000	-2.80000E-001	7.16743E-004	7	...........	-327.63
	642	12.86	-2.81132E-001	4.59235E-010	0.00000E+000	-2.84000E-001	7.07576E-004	7	...........	-327.63
	644	12.9	-2.84769E-001	7.21745E-010	0.00000E+000	-2.88000E-001	7.23410E-004	7	...........	-327.63
	646	12.94	-2.88824E-001	7.13412E-010	0.00000E+000	-2.92000E-001	7.20910E-004	7	...........	-327.63
	648	12.98	-2.93191E-001	1.23010E-009	0.00000E+000	-2.96000E-001	7.26743E-004	7	...........	-327.63
	650	13.02	-2.96919E-001	1.28010E-009	0.00000E+000	-3.00000E-001	7.18410E-004	7	...........	-327.63
	652	13.06	-3.01780E-001	1.40510E-009	0.00000E+000	-3.04000E-001	7.18410E-004	7	...........	-327.63
	654	13.1	-3.04926E-001	1.66345E-009	0.00000E+000	-3.08000E-001	7.31743E-004	7	...........	-327.63
	656	13.14	-3.09074E-001	1.93012E-009	0.00000E+000	-3.12000E-001	7.17576E-004	7	...........	-327.63
	658	13.18	-3.13187E-001	2.23430E-009	0.00000E+000	-3.16000E-001	7.40076E-004	7	...........	-327.63
	660	13.22	-3.17309E-001	2.42598E-009	0.00000E+000	-3.20000E-001	7.09243E-004	7	...........	-327.63
	662	13.26	-3.20728E-001	2.38431E-009	0.00000E+000	-3.24000E-001	7.17576E-004	7	...........	-327.63
	664	13.3	-3.25379E-001	2.68432E-009	0.00000E+000	-3.28000E-001	7.30910E-004	7	...........	-327.63
	666	13.34	-3.29406E-001	2.80516E-009	0.00000E+000	-3.32000E-001	7.14243E-004	7	...........	-327.63
	668	13.38	-3.33404E-001	3.10517E-009	0.00000E+000	-3.36000E-001	7.34243E-004	7	...........	-327.63
	670	13.42	-3.37469E-001	3.17184E-009	0.00000E+000	-3.40000E-001	7.06743E-004	7	...........	-327.63
	672	13.46	-3.41500E-001	3.44685E-009	0.00000E+000	-3.44000E-001	7.40910E-004	7	...........	-327.63
	674	13.5	-3.45495E-001	3.51768E-009	0.00000E+000	-3.48000E-001	7.23410E-004	7	...........	-327.63
	676	13.54	-3.49538E-001	3.95103E-009	0.00000E+000	-3.52000E-001	7.20076E-004	7	...........	-327.63
	678	13.58	-3.53572E-001	4.10104E-009	0.00000E+000	-3.56000E-001	7.25910E-004	7	...........	-327.63
	680	13.62	-3.57533E-001	4.30938E-009	0.00000E+000	-3.60000E-001	7.29243E-004	7	...........	-327.63
	682	13.66	-3.61604E-001	4.40938E-009	0.00000E+000	-3.64000E-001	7.20076E-004	7	...........	-327.63
	684	13.7	-3.65472E-001	4.46355E-009	0.00000E+000	-3.68000E-001	7.26743E-004	7	...........	-327.63
	686	13.74	-3.69302E-001	4.75106E-009	0.00000E+000	-3.72000E-001	7.30076E-004	7	...........	-327.63
	688	13.78	-3.73701E-001	4.86773E-009	0.00000E+000	-3.76000E-001	7.21743E-004	7	...........	-327.63
	690	13.82	-3.77714E-001	4.87190E-009	0.00000E+000	-3.80000E-001	7.23410E-004	7	...........	-327.63
	692	13.86	-3.81787E-001	5.13441E-009	0.00000E+000	-3.84000E-001	7.17576E-004	7	...........	-327.63
	694	13.9	-3.85820E-001	5.34275E-009	0.00000E+000	-3.88000E-001	7.31743E-004	7	...........	-327.63
	696	13.94	-3.89913E-001	5.59693E-009	0.00000E+000	-3.92000E-001	7.27576E-004	7	...........	-327.63
	698	13.98	-3.93845E-001	5.52609E-009	0.00000E+000	-3.96000E-001	7.06743E-004	7	...........	-327.63
	700	14.02	-3.98171E-001	5.96777E-009	0.00000E+000	-4.00000E-001	7.15910E-004	7	...........	-327.63
	702	14.06	-4.02313E-001	6.00528E-009	0.00000E+000	-4.04000E-001	7.40076E-004	7	...........	-327.63
	704	14.1	-4.06294E-001	6.06361E-009	0.00000E+000	-4.08000E-001	7.14243E-004	7	...........	-327.63
	706	14.14	-4.10384E-001	6.48446E-009	0.00000E+000	-4.12000E-001	7.23410E-004	7	...........	-327.63
	708	14.18	-4.14352E-001	6.57196E-009	0.00000E+000	-4.16000E-001	7.27576E-004	7	...........	-327.63
	710	14.22	-4.18249E-001	6.80114E-009	0.00000E+000	-4.20000E-001	7.19243E-004	7	...........	-327.63
	712	14.26	-4.22184E-001	7.09698E-009	0.00000E+000	-4.24000E-001	7.23410E-004	7	...........	-327.63
	714	14.3	-4.26280E-001	7.37616E-009	0.00000E+000	-4.28000E-001	7.30076E-004	7	...........	-327.63
	716	14.34	-4.30468E-001	7.66784E-009	0.00000E+000	-4.32000E-001	7.21743E-004	7	...........	-327.63
	718	14.38	-4.34681E-001	7.98868E-009	0.00000E+000	-4.36000E-001	7.31743E-004	7	...........	-327.63
	720	14.42	-4.38917E-001	8.03868E-009	0.00000E+000	-4.40000E-001	7.16743E-004	7	...........	-327.63
	722	14.46	-4.42733E-001	8.46370E-009	0.00000E+000	-4.44000E-001	7.22576E-004	7	...........	-327.63
	724	14.5	-4.47687E-001	8.53870E-009	0.00000E+000	-4.48000E-001	7.23410E-004	7	...........	-327.63
	726	14.54	-4.51534E-001	8.69288E-009	0.00000E+000	-4.52000E-001	7.30076E-004	7	...........	-327.63
	728	14.58	-4.56906E-001	9.42207E-009	0.00000E+000	-4.56000E-001	7.21743E-004	7	...........	-327.63
	730	14.62	-4.59282E-001	9.38457E-009	0.00000E+000	-4.60000E-001	6.99243E-004	7	...........	-327.63
	732	14.66	-4.63711E-001	9.51791E-009	0.00000E+000	-4.64000E-001	7.35076E-004	7	...........	-327.63
	734	14.7	-4.67997E-001	9.65958E-009	0.00000E+000	-4.68000E-001	7.23410E-004	7	...........	-327.63
	736	14.74	-4.71977E-001	9.86375E-009	0.00000E+000	-4.72000E-001	7.13410E-004	7	...........	-327.63
	738	14.78	-4.75975E-001	1.00429E-008	0.00000E+000	-4.76000E-001	7.07576E-004	7	...........	-327.63
	740	14.82	-4.79957E-001	1.01763E-008	0.00000E+000	-4.80000E-001	7.26743E-004	7	...........	-327.63
	742	14.86	-4.83725E-001	1.05763E-008	0.00000E+000	-4.84000E-001	7.31743E-004	7	...........	-327.63
	744	14.9	-4.88040E-001	1.06721E-008	0.00000E+000	-4.88000E-001	7.39243E-004	7	...........	-327.63
	746	14.94	-4.91125E-001	1.07013E-008	0.00000E+000	-4.92000E-001	7.18410E-004	7	...........	-327.63
	748	14.98	-4.96000E-001	1.10096E-008	0.00000E+000	-4.96000E-001	7.10910E-004	7	...........	-327.63
	750	15.02	-4.99312E-001	1.11888E-008	0.00000E+000	-5.00000E-001	7.35910E-004	7	...........	-327.63
CURVE2	TABLE
	Pt	T	Vf	Im	Vu	Sig	Ach	IERange	Over	Temp
	#	s	V vs. Ref.	A	V	V	V	#	bits	deg C
	751	15.04	-4.97830E-001	1.13096E-008	0.00000E+000	-4.98000E-001	6.25910E-004	7	...........	-327.63
	753	15.08	-4.93612E-001	1.15346E-008	0.00000E+000	-4.94000E-001	6.35910E-004	7	...........	-327.63
	755	15.12	-4.89401E-001	1.15346E-008	0.00000E+000	-4.90000E-001	6.62576E-004	7	...........	-327.63
	757	15.16	-4.85335E-001	1.18597E-008	0.00000E+000	-4.86000E-001	6.48410E-004	7	...........	-327.63
	759	15.2	-4.81296E-001	1.19888E-008	0.00000E+000	-4.82000E-001	6.90076E-004	7	...........	-327.63
[...]
	2804	56.1	-3.90683E-001	-3.79092E-009	0.00000E+000	-3.92000E-001	3.95910E-004	7	...........	-327.63
	2805	56.12	-3.88714E-001	-3.72009E-009	0.00000E+000	-3.90000E-001	3.90910E-004	7	...........	-327.63
	2806	56.14	-3.86702E-001	-3.78259E-009	0.00000E+000	-3.88000E-001	3.71743E-004	7	...........	-327.63
	2807	56.16	-3.84711E-001	-3.69925E-009	0.00000E+000	-3.86000E-001	3.90076E-004	7	...........	-327.63
	2808	56.18	-3.82727E-001	-3.65342E-009	0.00000E+000	-3.84000E-001	3.83410E-004	7	...........	-327.63
	2809	56.2	-3.80737E-001	-3.68675E-009	0.00000E+000	-3.82000E-001	4.19243E-004	7	...........	-327.63
	2810	56.22	-3.78738E-001	-3.68675E-009	0.00000E+000	-3.80000E-001	3.57576E-004	7	...........	-327.63
	2811	56.24	-3.76739E-001	-3.60342E-009	0.00000E+000	-3.78000E-001	4.05076E-004	7	...........	-327.63
	2812	56.26	-3.74762E-001	-3.50341E-009	0.00000E+000	-3.76000E-001	3.80910E-004	7	...........	-327.63
	2813	56.28	-3.72761E-001	-3.55758E-009	0.00000E+000	-3.74000E-001	4.08410E-004	7	...........	-327.63
	2814	56.3	-3.70781E-001	-3.58258E-009	0.00000E+000	-3.72000E-001	3.76743E-004	7	...........	-327.63
	2815	56.32	-3.68790E-001	-3.49925E-009	0.00000E+000	-3.70000E-001	4.14243E-004	7	...........	-327.63
	2816	56.34	-3.66813E-001	-3.27424E-009	0.00000E+000	-3.68000E-001	3.64243E-004	7	...........	-327.63
	2817	56.36	-3.64819E-001	-3.30340E-009	0.00000E+000	-3.66000E-001	3.86743E-004	7	...........	-327.63
	2818	56.38	-3.62824E-001	-3.24507E-009	0.00000E+000	-3.64000E-001	3.70910E-004	7	...........	-327.63
	2819	56.4	-3.60833E-001	-3.15757E-009	0.00000E+000	-3.62000E-001	3.77576E-004	7	...........	-327.63
	2820	56.42	-3.58837E-001	-3.09923E-009	0.00000E+000	-3.60000E-001	3.80076E-004	7	...........	-327.63
	2821	56.44	-3.56869E-001	-3.12006E-009	0.00000E+000	-3.58000E-001	4.06743E-004	7	...........	-327.63
	2822	56.46	-3.54878E-001	-3.08256E-009	0.00000E+000	-3.56000E-001	3.79243E-004	7	...........	-327.63
	2823	56.48	-3.52875E-001	-3.10340E-009	0.00000E+000	-3.54000E-001	3.98410E-004	7	...........	-327.63
	2824	56.5	-3.50872E-001	-2.92006E-009	0.00000E+000	-3.52000E-001	3.91743E-004	7	...........	-327.63
	2825	56.52	-3.48884E-001	-3.01589E-009	0.00000E+000	-3.50000E-001	4.10076E-004	7	...........	-327.63
	2826	56.54	-3.46898E-001	-2.93672E-009	0.00000E+000	-3.48000E-001	3.76743E-004	7	...........	-327.63
	2827	56.56	-3.44926E-001	-2.89089E-009	0.00000E+000	-3.46000E-001	3.85076E-004	7	...........	-327.63
	2828	56.58	-3.42936E-001	-2.92422E-009	0.00000E+000	-3.44000E-001	3.83410E-004	7	...........	-327.63
	2829	56.6	-3.40952E-001	-2.77839E-009	0.00000E+000	-3.42000E-001	3.83410E-004	7	...........	-327.63
	2830	56.62	-3.38952E-001	-2.63255E-009	0.00000E+000	-3.40000E-001	3.70910E-004	7	...........	-327.63
	2831	56.64	-3.36967E-001	-2.59921E-009	0.00000E+000	-3.38000E-001	3.95076E-004	7	...........	-327.63
	2832	56.66	-3.34974E-001	-2.61171E-009	0.00000E+000	-3.36000E-001	3.77576E-004	7	...........	-327.63
	2833	56.68	-3.32972E-001	-2.61171E-009	0.00000E+000	-3.34000E-001	4.01743E-004	7	...........	-327.63
	2834	56.7	-3.30978E-001	-2.37004E-009	0.00000E+000	-3.32000E-001	3.70910E-004	7	...........	-327.63
	2835	56.72	-3.29020E-001	-2.24087E-009	0.00000E+000	-3.30000E-001	3.95076E-004	7	...........	-327.63
	2836	56.74	-3.27028E-001	-2.41170E-009	0.00000E+000	-3.28000E-001	3.80910E-004	7	...........	-327.63
	2837	56.76	-3.25017E-001	-2.33254E-009	0.00000E+000	-3.26000E-001	4.09243E-004	7	...........	-327.63
	2838	56.78	-3.23016E-001	-2.27837E-009	0.00000E+000	-3.24000E-001	3.74243E-004	7	...........	-327.63
	2839	56.8	-3.21029E-001	-2.17420E-009	0.00000E+000	-3.22000E-001	3.89243E-004	7	...........	-327.63
	2840	56.82	-3.19071E-001	-1.92419E-009	0.00000E+000	-3.20000E-001	3.80076E-004	7	...........	-327.63
	2841	56.84	-3.17075E-001	-1.93252E-009	0.00000E+000	-3.18000E-001	4.06743E-004	7	...........	-327.63
	2842	56.86	-3.15089E-001	-1.80335E-009	0.00000E+000	-3.16000E-001	3.71743E-004	7	...........	-327.63
	2843	56.88	-3.13087E-001	-1.84918E-009	0.00000E+000	-3.14000E-001	3.84243E-004	7	...........	-327.63
	2844	56.9	-3.11094E-001	-1.86168E-009	0.00000E+000	-3.12000E-001	3.99243E-004	7	...........	-327.63
	2845	56.92	-3.09128E-001	-1.78251E-009	0.00000E+000	-3.10000E-001	3.80910E-004	7	...........	-327.63
	2846	56.94	-3.07153E-001	-1.65751E-009	0.00000E+000	-3.08000E-001	3.69243E-004	7	...........	-327.63
	2847	56.96	-3.05171E-001	-1.58667E-009	0.00000E+000	-3.06000E-001	3.89243E-004	7	...........	-327.63
	2848	56.98	-3.03166E-001	-1.45334E-009	0.00000E+000	-3.04000E-001	4.03410E-004	7	...........	-327.63
	2849	57	-3.01168E-001	-1.62001E-009	0.00000E+000	-3.02000E-001	4.03410E-004	7	...........	-327.63
	2850	57.02	-2.99173E-001	-1.30333E-009	0.00000E+000	-3.00000E-001	3.79243E-004	7	...........	-327.63
	2851	57.04	-2.97180E-001	-1.32833E-009	0.00000E+000	-2.98000E-001	3.95076E-004	7	...........	-327.63
	2852	57.06	-2.95198E-001	-1.08666E-009	0.00000E+000	-2.96000E-001	4.05910E-004	7	...........	-327.63
	2853	57.08	-2.93217E-001	-1.18666E-009	0.00000E+000	-2.94000E-001	4.03410E-004	7	...........	-327.63
	2854	57.1	-2.91251E-001	-1.01165E-009	0.00000E+000	-2.92000E-001	3.97576E-004	7	...........	-327.63
	2855	57.12	-2.89247E-001	-9.99152E-010	0.00000E+000	-2.90000E-001	3.78410E-004	7	...........	-327.63
	2856	57.14	-2.87261E-001	-9.28316E-010	0.00000E+000	-2.88000E-001	3.95910E-004	7	...........	-327.63
	2857	57.16	-2.85270E-001	-1.00749E-009	0.00000E+000	-2.86000E-001	3.85076E-004	7	...........	-327.63
	2858	57.18	-2.83269E-001	-9.19983E-010	0.00000E+000	-2.84000E-001	3.83410E-004	7	...........	-327.63
	2859	57.2	-2.81305E-001	-1.01999E-009	0.00000E+000	-2.82000E-001	3.97576E-004	7	...........	-327.63
	2860	57.22	-2.79302E-001	-8.53313E-010	0.00000E+000	-2.80000E-001	3.69243E-004	7	...........	-327.63
	2861	57.24	-2.77307E-001	-8.32479E-010	0.00000E+000	-2.78000E-001	4.00910E-004	7	...........	-327.63
	2862	57.26	-2.75307E-001	-7.19975E-010	0.00000E+000	-2.76000E-001	3.78410E-004	7	...........	-327.63
	2863	57.28	-2.73309E-001	-6.24138E-010	0.00000E+000	-2.74000E-001	4.10910E-004	7	...........	-327.63
	2864	57.3	-2.71332E-001	-5.74136E-010	0.00000E+000	-2.72000E-001	3.90076E-004	7	...........	-327.63
	2865	57.32	-2.69337E-001	-7.57477E-010	0.00000E+000	-2.70000E-001	3.83410E-004	7	...........	-327.63
	2866	57.34	-2.67367E-001	-4.28298E-010	0.00000E+000	-2.68000E-001	4.07576E-004	7	...........	-327.63
	2867	57.36	-2.65360E-001	-3.32461E-010	0.00000E+000	-2.66000E-001	4.07576E-004	7	...........	-327.63
	2868	57.38	-2.63384E-001	-3.24127E-010	0.00000E+000	-2.64000E-001	3.85910E-004	7	...........	-327.63
	2869	57.4	-2.61399E-001	-3.11627E-010	0.00000E+000	-2.62000E-001	4.11743E-004	7	...........	-327.63
	2870	57.42	-2.59422E-001	-2.36624E-010	0.00000E+000	-2.60000E-001	3.70076E-004	7	...........	-327.63
	2871	57.44	-2.57404E-001	-2.15790E-010	0.00000E+000	-2.58000E-001	3.87576E-004	7	...........	-327.63
	2872	57.46	-2.55430E-001	-1.94956E-010	0.00000E+000	-2.56000E-001	3.99243E-004	7	...........	-327.63
	2873	57.48	-2.53447E-001	-1.53287E-010	0.00000E+000	-2.54000E-001	3.89243E-004	7	...........	-327.63
	2874	57.5	-2.51456E-001	-7.82846E-011	0.00000E+000	-2.52000E-001	3.75076E-004	7	...........	-327.63
	2875	57.52	-2.49459E-001	1.84225E-010	0.00000E+000	-2.50000E-001	3.90076E-004	7	...........	-327.63
	2876	57.54	-2.47470E-001	2.21727E-010	0.00000E+000	-2.48000E-001	3.86743E-004	7	...........	-327.63
	2877	57.56	-2.45469E-001	1.88392E-010	0.00000E+000	-2.46000E-001	3.83410E-004	7	...........	-327.63
	2878	57.58	-2.43491E-001	3.67565E-010	0.00000E+000	-2.44000E-001	3.88410E-004	7	...........	-327.63
	2879	57.6	-2.41514E-001	4.46735E-010	0.00000E+000	-2.42000E-001	3.88410E-004	7	...........	-327.63
	2880	57.62	-2.39512E-001	2.21727E-010	0.00000E+000	-2.40000E-001	3.85910E-004	7	...........	-327.63
	2881	57.64	-2.37536E-001	4.00900E-010	0.00000E+000	-2.38000E-001	3.91743E-004	7	...........	-327.63
	2882	57.66	-2.35545E-001	4.46735E-010	0.00000E+000	-2.36000E-001	3.79243E-004	7	...........	-327.63
	2883	57.68	-2.33545E-001	4.75903E-010	0.00000E+000	-2.34000E-001	4.08410E-004	7	...........	-327.63
	2884	57.7	-2.31543E-001	5.63406E-010	0.00000E+000	-2.32000E-001	3.73410E-004	7	...........	-327.63
	2885	57.72	-2.29583E-001	6.59243E-010	0.00000E+000	-2.30000E-001	4.05910E-004	7	...........	-327.63
	2886	57.74	-2.27597E-001	8.42583E-010	0.00000E+000	-2.28000E-001	4.12576E-004	7	...........	-327.63
	2887	57.76	-2.25580E-001	7.88414E-010	0.00000E+000	-2.26000E-001	4.15076E-004	7	...........	-327.63
	2888	57.78	-2.23592E-001	8.59250E-010	0.00000E+000	-2.24000E-001	3.73410E-004	7	...........	-327.63
	2889	57.8	-2.21596E-001	6.63410E-010	0.00000E+000	-2.22000E-001	3.89243E-004	7	...........	-327.63
	2890	57.82	-2.19599E-001	9.88422E-010	0.00000E+000	-2.20000E-001	3.91743E-004	7	...........	-327.63
	2891	57.84	-2.17612E-001	1.00509E-009	0.00000E+000	-2.18000E-001	3.87576E-004	7	...........	-327.63
	2892	57.86	-2.15625E-001	9.50920E-010	0.00000E+000	-2.16000E-001	4.00076E-004	7	...........	-327.63
	2893	57.88	-2.13647E-001	7.75914E-010	0.00000E+000	-2.14000E-001	3.98410E-004	7	...........	-327.63
	2894	57.9	-2.11678E-001	1.12593E-009	0.00000E+000	-2.12000E-001	3.89243E-004	7	...........	-327.63
	2895	57.92	-2.09665E-001	1.12593E-009	0.00000E+000	-2.10000E-001	3.81743E-004	7	...........	-327.63
	2896	57.94	-2.07679E-001	1.30510E-009	0.00000E+000	-2.08000E-001	3.82576E-004	7	...........	-327.63
	2897	57.96	-2.05692E-001	1.27177E-009	0.00000E+000	-2.06000E-001	4.14243E-004	7	...........	-327.63
	2898	57.98	-2.03714E-001	1.30093E-009	0.00000E+000	-2.04000E-001	3.91743E-004	7	...........	-327.63
	2899	58	-2.01720E-001	1.25510E-009	0.00000E+000	-2.02000E-001	4.10910E-004	7	...........	-327.63
	2900	58.02	-1.99712E-001	1.33427E-009	0.00000E+000	-2.00000E-001	3.80076E-004	7	...........	-327.63
	2901	58.04	-1.97721E-001	1.49677E-009	0.00000E+000	-1.98000E-001	3.95910E-004	7	...........	-327.63
	2902	58.06	-1.95727E-001	1.27177E-009	0.00000E+000	-1.96000E-001	3.87576E-004	7	...........	-327.63
	2903	58.08	-1.93739E-001	1.38844E-009	0.00000E+000	-1.94000E-001	3.94243E-004	7	...........	-327.63
	2904	58.1	-1.91761E-001	1.53844E-009	0.00000E+000	-1.92000E-001	3.90910E-004	7	...........	-327.63
	2905	58.12	-1.89778E-001	1.61345E-009	0.00000E+000	-1.90000E-001	3.92576E-004	7	...........	-327.63
	2906	58.14	-1.87786E-001	1.58428E-009	0.00000E+000	-1.88000E-001	3.75910E-004	7	...........	-327.63
	2907	58.16	-1.85797E-001	1.60928E-009	0.00000E+000	-1.86000E-001	4.11743E-004	7	...........	-327.63
	2908	58.18	-1.83799E-001	1.80095E-009	0.00000E+000	-1.84000E-001	4.03410E-004	7	...........	-327.63
	2909	58.2	-1.81807E-001	1.79679E-009	0.00000E+000	-1.82000E-001	3.70076E-004	7	...........	-327.63
	2910	58.22	-1.79817E-001	1.75928E-009	0.00000E+000	-1.80000E-001	4.05076E-004	7	...........	-327.63
	2911	58.24	-1.77837E-001	2.03846E-009	0.00000E+000	-1.78000E-001	4.00076E-004	7	...........	-327.63
	2912	58.26	-1.75823E-001	1.84679E-009	0.00000E+000	-1.76000E-001	3.83410E-004	7	...........	-327.63
	2913	58.28	-1.73836E-001	2.03013E-009	0.00000E+000	-1.74000E-001	3.69243E-004	7	...........	-327.63
	2914	58.3	-1.71852E-001	1.98429E-009	0.00000E+000	-1.72000E-001	4.18410E-004	7	...........	-327.63
	2915	58.32	-1.69856E-001	2.43431E-009	0.00000E+000	-1.70000E-001	3.80910E-004	7	...........	-327.63
	2916	58.34	-1.67850E-001	2.27597E-009	0.00000E+000	-1.68000E-001	3.75910E-004	7	...........	-327.63
	2917	58.36	-1.65882E-001	2.33431E-009	0.00000E+000	-1.66000E-001	4.10076E-004	7	...........	-327.63
	2918	58.38	-1.63902E-001	2.24680E-009	0.00000E+000	-1.64000E-001	4.07576E-004	7	...........	-327.63
	2919	58.4	-1.61917E-001	2.50515E-009	0.00000E+000	-1.62000E-001	3.59243E-004	7	...........	-327.63
	2920	58.42	-1.59925E-001	2.50515E-009	0.00000E+000	-1.60000E-001	4.05910E-004	7	...........	-327.63
	2921	58.44	-1.57928E-001	2.52598E-009	0.00000E+000	-1.58000E-001	3.75910E-004	7	...........	-327.63
	2922	58.46	-1.55929E-001	2.66348E-009	0.00000E+000	-1.56000E-001	3.95076E-004	7	...........	-327.63
	2923	58.48	-1.53957E-001	2.92599E-009	0.00000E+000	-1.54000E-001	3.83410E-004	7	...........	-327.63
	2924	58.5	-1.51956E-001	2.91766E-009	0.00000E+000	-1.52000E-001	3.73410E-004	7	...........	-327.63
	2925	58.52	-1.49983E-001	2.77599E-009	0.00000E+000	-1.50000E-001	3.77576E-004	7	...........	-327.63
	2926	58.54	-1.47985E-001	2.90099E-009	0.00000E+000	-1.48000E-001	4.22576E-004	7	...........	-327.63
	2927	58.56	-1.45983E-001	3.13850E-009	0.00000E+000	-1.46000E-001	3.90076E-004	7	...........	-327.63
	2928	58.58	-1.43991E-001	3.18850E-009	0.00000E+000	-1.44000E-001	4.01743E-004	7	...........	-327.63
	2929	58.6	-1.42005E-001	3.35934E-009	0.00000E+000	-1.42000E-001	3.85076E-004	7	...........	-327.63
	2930	58.62	-1.40039E-001	3.58019E-009	0.00000E+000	-1.40000E-001	4.03410E-004	7	...........	-327.63
	2931	58.64	-1.38048E-001	3.48018E-009	0.00000E+000	-1.38000E-001	3.76743E-004	7	...........	-327.63
	2932	58.66	-1.36050E-001	3.63852E-009	0.00000E+000	-1.36000E-001	3.88410E-004	7	...........	-327.63
	2933	58.68	-1.34067E-001	3.61352E-009	0.00000E+000	-1.34000E-001	4.00910E-004	7	...........	-327.63
	2934	58.7	-1.32085E-001	3.70102E-009	0.00000E+000	-1.32000E-001	3.95076E-004	7	...........	-327.63
	2935	58.72	-1.30102E-001	3.70102E-009	0.00000E+000	-1.30000E-001	3.67576E-004	7	...........	-327.63
	2936	58.74	-1.28108E-001	3.81353E-009	0.00000E+000	-1.28000E-001	3.92576E-004	7	...........	-327.63
	2937	58.76	-1.26103E-001	3.89270E-009	0.00000E+000	-1.26000E-001	3.80910E-004	7	...........	-327.63
	2938	58.78	-1.24139E-001	3.81353E-009	0.00000E+000	-1.24000E-001	4.17576E-004	7	...........	-327.63
	2939	58.8	-1.22137E-001	4.03854E-009	0.00000E+000	-1.22000E-001	3.70076E-004	7	...........	-327.63
	2940	58.82	-1.20152E-001	4.02604E-009	0.00000E+000	-1.20000E-001	3.80910E-004	7	...........	-327.63
	2941	58.84	-1.18154E-001	4.00937E-009	0.00000E+000	-1.18000E-001	4.04243E-004	7	...........	-327.63
	2942	58.86	-1.16161E-001	4.02187E-009	0.00000E+000	-1.16000E-001	4.14243E-004	7	...........	-327.63
	2943	58.88	-1.14184E-001	4.18854E-009	0.00000E+000	-1.14000E-001	4.10076E-004	7	...........	-327.63
	2944	58.9	-1.12202E-001	4.07187E-009	0.00000E+000	-1.12000E-001	4.13410E-004	7	...........	-327.63
	2945	58.92	-1.10227E-001	4.19271E-009	0.00000E+000	-1.10000E-001	3.87576E-004	7	...........	-327.63
	2946	58.94	-1.08236E-001	4.16354E-009	0.00000E+000	-1.08000E-001	4.06743E-004	7	...........	-327.63
	2947	58.96	-1.06112E-001	4.24271E-009	0.00000E+000	-1.06000E-001	3.87576E-004	7	...........	-327.63
	2948	58.98	-1.04136E-001	4.42605E-009	0.00000E+000	-1.04000E-001	4.03410E-004	7	...........	-327.63
	2949	59	-1.02264E-001	4.53022E-009	0.00000E+000	-1.02000E-001	3.78410E-004	7	...........	-327.63
	2950	59.02	-1.00310E-001	4.50522E-009	0.00000E+000	-1.00000E-001	4.07576E-004	7	...........	-327.63
	2951	59.04	-9.83037E-002	4.63022E-009	0.00000E+000	-9.80000E-002	3.87576E-004	7	...........	-327.63
	2952	59.06	-9.62991E-002	4.65939E-009	0.00000E+000	-9.60000E-002	4.20910E-004	7	...........	-327.63
	2953	59.08	-9.43074E-002	4.65939E-009	0.00000E+000	-9.40000E-002	3.89243E-004	7	...........	-327.63
	2954	59.1	-9.22928E-002	4.66356E-009	0.00000E+000	-9.20000E-002	4.00910E-004	7	...........	-327.63
	2955	59.12	-9.03191E-002	4.72189E-009	0.00000E+000	-9.00000E-002	3.70076E-004	7	...........	-327.63
	2956	59.14	-8.82262E-002	5.01774E-009	0.00000E+000	-8.80000E-002	3.99243E-004	7	...........	-327.63
	2957	59.16	-8.63420E-002	4.90940E-009	0.00000E+000	-8.60000E-002	3.75076E-004	7	...........	-327.63
	2958	59.18	-8.43853E-002	5.08857E-009	0.00000E+000	-8.40000E-002	4.00910E-004	7	...........	-327.63
	2959	59.2	-8.24224E-002	5.03024E-009	0.00000E+000	-8.20000E-002	3.55076E-004	7	...........	-327.63
	2960	59.22	-8.04174E-002	5.11358E-009	0.00000E+000	-8.00000E-002	4.19243E-004	7	...........	-327.63
	2961	59.24	-7.84395E-002	5.05524E-009	0.00000E+000	-7.80000E-002	3.89243E-004	7	...........	-327.63
	2962	59.26	-7.64670E-002	5.25525E-009	0.00000E+000	-7.60000E-002	3.93410E-004	7	...........	-327.63
	2963	59.28	-7.44678E-002	5.33858E-009	0.00000E+000	-7.40000E-002	3.78410E-004	7	...........	-327.63
	2964	59.3	-7.24703E-002	5.41359E-009	0.00000E+000	-7.20000E-002	3.93410E-004	7	...........	-327.63
	2965	59.32	-7.03112E-002	5.46359E-009	0.00000E+000	-7.00000E-002	4.13410E-004	7	...........	-327.63
	2966	59.34	-6.83912E-002	5.57609E-009	0.00000E+000	-6.80000E-002	3.99243E-004	7	...........	-327.63
	2967	59.36	-6.64282E-002	5.56359E-009	0.00000E+000	-6.60000E-002	3.78410E-004	7	...........	-327.63
	2968	59.38	-6.43124E-002	5.67610E-009	0.00000E+000	-6.40000E-002	3.88410E-004	7	...........	-327.63
	2969	59.4	-6.24895E-002	5.65526E-009	0.00000E+000	-6.20000E-002	3.95910E-004	7	...........	-327.63
	2970	59.42	-6.01657E-002	5.59276E-009	0.00000E+000	-6.00000E-002	3.88410E-004	7	...........	-327.63
	2971	59.44	-5.82270E-002	5.84694E-009	0.00000E+000	-5.80000E-002	4.10910E-004	7	...........	-327.63
	2972	59.46	-5.59549E-002	5.78027E-009	0.00000E+000	-5.60000E-002	4.06743E-004	7	...........	-327.63
	2973	59.48	-5.40528E-002	6.04278E-009	0.00000E+000	-5.40000E-002	4.10910E-004	7	...........	-327.63
	2974	59.5	-5.21587E-002	6.31779E-009	0.00000E+000	-5.20000E-002	3.91743E-004	7	...........	-327.63
	2975	59.52	-5.01062E-002	6.24695E-009	0.00000E+000	-5.00000E-002	4.05076E-004	7	...........	-327.63
	2976	59.54	-4.79503E-002	6.23028E-009	0.00000E+000	-4.80000E-002	3.95910E-004	7	...........	-327.63
	2977	59.56	-4.63770E-002	6.57613E-009	0.00000E+000	-4.60000E-002	3.98410E-004	7	...........	-327.63
	2978	59.58	-4.46091E-002	6.63030E-009	0.00000E+000	-4.40000E-002	4.03410E-004	7	...........	-327.63
	2979	59.6	-4.26345E-002	6.68863E-009	0.00000E+000	-4.20000E-002	3.75076E-004	7	...........	-327.63
	2980	59.62	-4.06370E-002	6.62613E-009	0.00000E+000	-4.00000E-002	3.79243E-004	7	...........	-327.63
	2981	59.64	-3.85991E-002	6.62197E-009	0.00000E+000	-3.80000E-002	3.77576E-004	7	...........	-327.63
	2982	59.66	-3.66907E-002	6.92614E-009	0.00000E+000	-3.60000E-002	3.92576E-004	7	...........	-327.63
	2983	59.68	-3.46912E-002	6.91364E-009	0.00000E+000	-3.40000E-002	3.72576E-004	7	...........	-327.63
	2984	59.7	-3.27257E-002	7.12198E-009	0.00000E+000	-3.20000E-002	3.95910E-004	7	...........	-327.63
	2985	59.72	-3.07157E-002	6.98031E-009	0.00000E+000	-3.00000E-002	3.82576E-004	7	...........	-327.63
	2986	59.74	-2.84937E-002	7.11782E-009	0.00000E+000	-2.80000E-002	3.93410E-004	7	...........	-327.63
	2987	59.76	-2.64091E-002	7.24282E-009	0.00000E+000	-2.60000E-002	3.85910E-004	7	...........	-327.63
	2988	59.78	-2.39891E-002	7.12615E-009	0.00000E+000	-2.40000E-002	3.91743E-004	7	...........	-327.63
	2989	59.8	-2.23695E-002	7.36366E-009	0.00000E+000	-2.20000E-002	3.79243E-004	7	...........	-327.63
	2990	59.82	-2.04357E-002	7.76367E-009	0.00000E+000	-2.00000E-002	3.68410E-004	7	...........	-327.63
	2991	59.84	-1.86516E-002	7.73451E-009	0.00000E+000	-1.80000E-002	4.02576E-004	7	...........	-327.63
	2992	59.86	-1.67762E-002	7.94701E-009	0.00000E+000	-1.60000E-002	4.04243E-004	7	...........	-327.63
	2993	59.88	-1.47624E-002	8.01368E-009	0.00000E+000	-1.40000E-002	4.23410E-004	7	...........	-327.63
	2994	59.9	-1.28162E-002	8.00118E-009	0.00000E+000	-1.20000E-002	3.83410E-004	7	...........	-327.63
	2995	59.92	-1.08495E-002	8.16369E-009	0.00000E+000	-1.00000E-002	3.90076E-004	7	...........	-327.63
	2996	59.94	-8.85741E-003	8.23036E-009	0.00000E+000	-8.00000E-003	3.80910E-004	7	...........	-327.63
	2997	59.96	-6.87949E-003	8.22202E-009	0.00000E+000	-6.00000E-003	3.95910E-004	7	...........	-327.63
	2998	59.98	-4.88991E-003	8.34703E-009	0.00000E+000	-4.00000E-003	3.85910E-004	7	...........	-327.63
	2999	60	-2.89908E-003	8.50954E-009	0.00000E+000	-2.00000E-003	4.05910E-004	7	...........	-327.63
	3000	60.02	-9.30743E-004	8.53454E-009	0.00000E+000	0.00000E+000	3.89243E-004	7	...........	-327.63