File: Gamry/CV_fullWindow_noBuffer_2.DTA
EXPLAIN
TAG	CV
TITLE	LABEL	Cyclic Voltammetry	Test &Identifier
DATE	LABEL	5-12-2022	Date
TIME	LABEL	13:22:38	Time
NOTES	NOTES	1	&Notes...

PSTAT	PSTAT	REF3000-20110	Potentiostat
VINIT	POTEN	0.00000E+000	F	Initial &E (V)
VLIMIT1	POTEN	5.00000E-001	F	Scan Limit &1 (V)
VLIMIT2	POTEN	-5.00000E-001	F	Scan Limit &2 (V)
VFINAL	POTEN	0.00000E+000	F	Final &E (V)
SCANRATE	QUANT	9.99998E+001	&Scan Rate (mV/s)
STEPSIZE	QUANT	2.00000E+000	St&ep Size (mV)
CYCLES	IQUANT	3	C&ycles (#)
IMODE	SELECTOR	0	I/E Range &Mode
IRANGE	QUANT	3.00000E-001	&Max Current (mA)
AREA	QUANT	1.00000E+000	Electrode &Area (cm^2)
ELECTRODETYPE	SELECTOR	0	Electrode Type
STRIPPING	TOGGLE	F	Used for Stripping
CONDIT	TWOPARAM	F	1.50000E+001	0.00000E+000	Conditionin&g	Time(s)	E(V)
DELAY	TWOPARAM	F	3.00000E+001	0.00000E+000	Init. De&lay	Time(s)	Stab.(mV/s)
EQDELAY	QUANT	0.00000E+000	Equil. &Time (s)
IRCOMP	SELECTOR	0	IRCom&p
PFCOR	QUANT	5.00000E+001	PF Corr. (ohm)
SAMPLINGMODE	SELECTOR	1	Sampling &Mode
EOC	QUANT	0	Open Circuit (V)
PSTATMODEL	IQUANT	5	Pstat Model
PSTATSECTION	LABEL	REF3000-20110	Pstat Section
PSTATSERIALNO	LABEL	20110	Pstat Serial Number
CTRLMODE	IQUANT	1	Control Mode
ELECTROMETER	IQUANT	0	RE=0 or CS=1
IESTAB	IQUANT	2	I/E Stability
CASPEED	IQUANT	4	Control Amp Speed
CONVENTION	IQUANT	1	Current Convention
ICHRANGE	IQUANT	2	Ich Range
ICHRANGEMODE	TOGGLE	F	Ich Auto Range
ICHOFFSETENABLE	TOGGLE	F	Ich Offset Enable
ICHOFFSET	QUANT	0	Ich Offset (V)
ICHFILTER	IQUANT	2	Ich Filter
VCHRANGE	IQUANT	2	Vch Range
VCHRANGEMODE	TOGGLE	F	Vch Auto Range
VCHOFFSETENABLE	TOGGLE	F	Vch Offset Enable
VCHOFFSET	QUANT	0	Vch Offset (V)
VCHFILTER	IQUANT	2	Vch Filter
ACHRANGE	IQUANT	2	Ach Range
ACHOFFSETENABLE	TOGGLE	F	Ach Offset Enable
ACHOFFSET	QUANT	0	Ach Offset (V)
ACHFILTER	IQUANT	1	Ach Filter
IERANGELOWERLIMIT	IQUANT	2	I/E Range Lower Limit
IERANGEMODE	TOGGLE	T	I/E AutoRange
IERANGE	IQUANT	9	I/E Range
POSFEEDENABLE	TOGGLE	F	Positive Feedback IR Comp
POSFEEDRESISTANCE	QUANT	0	Positive Feedback Resistance (ohm)
ACHSELECT	IQUANT	4	Ach Select
SENSECABLEID	IQUANT	14	Sense Cable ID
PWRCABLEID	IQUANT	7	Power Cable ID
DCCALDATE	LABEL	8/9/2022	DC Calibration Date
ACCALDATE	LABEL	8/9/2022	AC Calibration Date
THERMOSELECT	IQUANT	1	Thermo Select
FRAMEWORKVERSION	LABEL	7.9.0	Framework Version
INSTRUMENTVERSION	LABEL	4.60	Instrument Version
COMPLIANCEVOLTAGE	IQUANT	0	Compliance Voltage
CURVE1	TABLE
	Pt	T	Vf	Im	Vu	Sig	Ach	IERange	Over	Temp
	#	s	V vs. Ref.	A	V	V	V	#	bits	deg C
	0	0.02	5.17140E-003	-5.76767E-008	0.00000E+000	0.00000E+000	7.38410E-004	9	...........	-327.63
	2	0.06	8.32092E-003	-2.75338E-009	0.00000E+000	4.00000E-003	7.30910E-004	7	...........	-327.63
	4	0.1	1.33172E-002	-3.30757E-009	0.00000E+000	8.00000E-003	7.37576E-004	7	...........	-327.63
	6	0.14	1.73472E-002	-3.26590E-009	0.00000E+000	1.20000E-002	7.34243E-004	7	...........	-327.63
	8	0.18	2.13680E-002	-3.20757E-009	0.00000E+000	1.60000E-002	7.44243E-004	7	...........	-327.63
	10	0.22	2.53647E-002	-3.35341E-009	0.00000E+000	2.00000E-002	7.33410E-004	7	...........	-327.63
	12	0.26	2.93676E-002	-3.28674E-009	0.00000E+000	2.40000E-002	7.27576E-004	7	...........	-327.63
	14	0.3	3.33738E-002	-3.38257E-009	0.00000E+000	2.80000E-002	7.40910E-004	7	...........	-327.63
	16	0.34	3.73876E-002	-3.44508E-009	0.00000E+000	3.20000E-002	7.55076E-004	7	...........	-327.63
	18	0.38	4.13913E-002	-3.46174E-009	0.00000E+000	3.60000E-002	7.25076E-004	7	...........	-327.63
	20	0.42	4.54009E-002	-3.42841E-009	0.00000E+000	4.00000E-002	7.35076E-004	7	...........	-327.63
	22	0.46	4.94018E-002	-3.47841E-009	0.00000E+000	4.40000E-002	7.16743E-004	7	...........	-327.63
	24	0.5	5.33734E-002	-3.26174E-009	0.00000E+000	4.80000E-002	7.26743E-004	7	...........	-327.63
	26	0.54	5.73813E-002	-3.32424E-009	0.00000E+000	5.20000E-002	7.20076E-004	7	...........	-327.63
	28	0.58	6.13680E-002	-3.24507E-009	0.00000E+000	5.60000E-002	7.39243E-004	7	...........	-327.63
	30	0.62	6.53809E-002	-3.30757E-009	0.00000E+000	6.00000E-002	7.36743E-004	7	...........	-327.63
	32	0.66	6.86493E-002	-2.84922E-009	0.00000E+000	6.40000E-002	7.25910E-004	7	...........	-327.63
	34	0.7	7.26859E-002	-3.07423E-009	0.00000E+000	6.80000E-002	7.52576E-004	7	...........	-327.63
	36	0.74	7.72876E-002	-3.17423E-009	0.00000E+000	7.20000E-002	7.40910E-004	7	...........	-327.63
	38	0.78	8.13359E-002	-3.45758E-009	0.00000E+000	7.60000E-002	7.31743E-004	7	...........	-327.63
	40	0.82	8.44680E-002	-3.21173E-009	0.00000E+000	8.00000E-002	7.27576E-004	7	...........	-327.63
	42	0.86	8.93884E-002	-3.50341E-009	0.00000E+000	8.40000E-002	7.24243E-004	7	...........	-327.63
	44	0.9	9.34063E-002	-3.41174E-009	0.00000E+000	8.80000E-002	7.33410E-004	7	...........	-327.63
	46	0.94	9.74247E-002	-3.35341E-009	0.00000E+000	9.20000E-002	7.25910E-004	7	...........	-327.63
	48	0.98	1.01424E-001	-3.39924E-009	0.00000E+000	9.60000E-002	7.38410E-004	7	...........	-327.63
	50	1.02	1.05385E-001	-3.57008E-009	0.00000E+000	1.00000E-001	7.29243E-004	7	...........	-327.63
	52	1.06	1.09420E-001	-3.50341E-009	0.00000E+000	1.04000E-001	7.28410E-004	7	...........	-327.63
	54	1.1	1.13419E-001	-3.71592E-009	0.00000E+000	1.08000E-001	7.35076E-004	7	...........	-327.63
	56	1.14	1.17433E-001	-3.74509E-009	0.00000E+000	1.12000E-001	7.29243E-004	7	...........	-327.63
	58	1.18	1.21434E-001	-3.74509E-009	0.00000E+000	1.16000E-001	7.29243E-004	7	...........	-327.63
	60	1.22	1.25430E-001	-3.79509E-009	0.00000E+000	1.20000E-001	7.35910E-004	7	...........	-327.63
	62	1.26	1.29430E-001	-3.83259E-009	0.00000E+000	1.24000E-001	7.28410E-004	7	...........	-327.63
	64	1.3	1.33435E-001	-3.84092E-009	0.00000E+000	1.28000E-001	7.45910E-004	7	...........	-327.63
	66	1.34	1.37445E-001	-3.92843E-009	0.00000E+000	1.32000E-001	7.40076E-004	7	...........	-327.63
	68	1.38	1.41449E-001	-4.02426E-009	0.00000E+000	1.36000E-001	7.40910E-004	7	...........	-327.63
	70	1.42	1.45462E-001	-4.17010E-009	0.00000E+000	1.40000E-001	7.47576E-004	7	...........	-327.63
	72	1.46	1.49458E-001	-4.29511E-009	0.00000E+000	1.44000E-001	7.35910E-004	7	...........	-327.63
	74	1.5	1.53446E-001	-4.37428E-009	0.00000E+000	1.48000E-001	7.35076E-004	7	...........	-327.63
	76	1.54	1.57462E-001	-4.18677E-009	0.00000E+000	1.52000E-001	7.32576E-004	7	...........	-327.63
	78	1.58	1.61456E-001	-4.47428E-009	0.00000E+000	1.56000E-001	7.39243E-004	7	...........	-327.63
	80	1.62	1.65455E-001	-4.61179E-009	0.00000E+000	1.60000E-001	7.33410E-004	7	...........	-327.63
	82	1.66	1.69473E-001	-4.61595E-009	0.00000E+000	1.64000E-001	7.46743E-004	7	...........	-327.63
	84	1.7	1.73485E-001	-4.42845E-009	0.00000E+000	1.68000E-001	7.25910E-004	7	...........	-327.63
	86	1.74	1.77479E-001	-4.56595E-009	0.00000E+000	1.72000E-001	7.35910E-004	7	...........	-327.63
	88	1.78	1.81475E-001	-4.41595E-009	0.00000E+000	1.76000E-001	7.25910E-004	7	...........	-327.63
	90	1.82	1.85465E-001	-4.59095E-009	0.00000E+000	1.80000E-001	7.37576E-004	7	...........	-327.63
	92	1.86	1.89493E-001	-4.75346E-009	0.00000E+000	1.84000E-001	7.22576E-004	7	...........	-327.63
	94	1.9	1.93486E-001	-4.87846E-009	0.00000E+000	1.88000E-001	7.36743E-004	7	...........	-327.63
	96	1.94	1.97467E-001	-4.74096E-009	0.00000E+000	1.92000E-001	7.35910E-004	7	...........	-327.63
	98	1.98	2.01501E-001	-4.79929E-009	0.00000E+000	1.96000E-001	7.46743E-004	7	...........	-327.63
	100	2.02	2.05480E-001	-4.84513E-009	0.00000E+000	2.00000E-001	7.35910E-004	7	...........	-327.63
	102	2.06	2.09487E-001	-4.89513E-009	0.00000E+000	2.04000E-001	7.36743E-004	7	...........	-327.63
	104	2.1	2.13513E-001	-4.82429E-009	0.00000E+000	2.08000E-001	7.29243E-004	7	...........	-327.63
	106	2.14	2.17513E-001	-4.88680E-009	0.00000E+000	2.12000E-001	7.53410E-004	7	...........	-327.63
	108	2.18	2.21524E-001	-5.02014E-009	0.00000E+000	2.16000E-001	7.23410E-004	7	...........	-327.63
	110	2.22	2.25525E-001	-5.17431E-009	0.00000E+000	2.20000E-001	7.21743E-004	7	...........	-327.63
	112	2.26	2.29538E-001	-5.10764E-009	0.00000E+000	2.24000E-001	7.15076E-004	7	...........	-327.63
	114	2.3	2.33542E-001	-5.06180E-009	0.00000E+000	2.28000E-001	7.44243E-004	7	...........	-327.63
	116	2.34	2.37541E-001	-5.09097E-009	0.00000E+000	2.32000E-001	7.36743E-004	7	...........	-327.63
	118	2.38	2.41550E-001	-5.20764E-009	0.00000E+000	2.36000E-001	7.21743E-004	7	...........	-327.63
	120	2.42	2.45554E-001	-5.38265E-009	0.00000E+000	2.40000E-001	7.38410E-004	7	...........	-327.63
	122	2.46	2.49561E-001	-5.34931E-009	0.00000E+000	2.44000E-001	7.30076E-004	7	...........	-327.63
	124	2.5	2.53558E-001	-5.50349E-009	0.00000E+000	2.48000E-001	7.30076E-004	7	...........	-327.63
	126	2.54	2.57553E-001	-5.54099E-009	0.00000E+000	2.52000E-001	7.36743E-004	7	...........	-327.63
	128	2.58	2.61559E-001	-5.58266E-009	0.00000E+000	2.56000E-001	7.31743E-004	7	...........	-327.63
	130	2.62	2.65565E-001	-5.69933E-009	0.00000E+000	2.60000E-001	7.34243E-004	7	...........	-327.63
	132	2.66	2.69555E-001	-5.91600E-009	0.00000E+000	2.64000E-001	7.40910E-004	7	...........	-327.63
	134	2.7	2.73556E-001	-5.93684E-009	0.00000E+000	2.68000E-001	7.30076E-004	7	...........	-327.63
	136	2.74	2.77548E-001	-5.92434E-009	0.00000E+000	2.72000E-001	7.26743E-004	7	...........	-327.63
	138	2.78	2.81543E-001	-6.05351E-009	0.00000E+000	2.76000E-001	7.32576E-004	7	...........	-327.63
	140	2.82	2.85550E-001	-6.09518E-009	0.00000E+000	2.80000E-001	7.37576E-004	7	...........	-327.63
	142	2.86	2.89531E-001	-6.18685E-009	0.00000E+000	2.84000E-001	7.32576E-004	7	...........	-327.63
	144	2.9	2.93532E-001	-6.38269E-009	0.00000E+000	2.88000E-001	7.34243E-004	7	...........	-327.63
	146	2.94	2.97546E-001	-6.47852E-009	0.00000E+000	2.92000E-001	7.35910E-004	7	...........	-327.63
	148	2.98	3.01541E-001	-6.48269E-009	0.00000E+000	2.96000E-001	7.45076E-004	7	...........	-327.63
	150	3.02	3.05562E-001	-6.65353E-009	0.00000E+000	3.00000E-001	7.36743E-004	7	...........	-327.63
	152	3.06	3.09601E-001	-6.66186E-009	0.00000E+000	3.04000E-001	7.17576E-004	7	...........	-327.63
	154	3.1	3.13590E-001	-6.80354E-009	0.00000E+000	3.08000E-001	7.19243E-004	7	...........	-327.63
	156	3.14	3.17618E-001	-6.89937E-009	0.00000E+000	3.12000E-001	7.30076E-004	7	...........	-327.63
	158	3.18	3.21620E-001	-6.80770E-009	0.00000E+000	3.16000E-001	7.50076E-004	7	...........	-327.63
	160	3.22	3.25618E-001	-6.93271E-009	0.00000E+000	3.20000E-001	7.40910E-004	7	...........	-327.63
	162	3.26	3.29619E-001	-7.14938E-009	0.00000E+000	3.24000E-001	7.37576E-004	7	...........	-327.63
	164	3.3	3.33604E-001	-7.22438E-009	0.00000E+000	3.28000E-001	7.32576E-004	7	...........	-327.63
	166	3.34	3.37615E-001	-7.16188E-009	0.00000E+000	3.32000E-001	7.34243E-004	7	...........	-327.63
	168	3.38	3.41677E-001	-7.21188E-009	0.00000E+000	3.36000E-001	7.30910E-004	7	...........	-327.63
	170	3.42	3.45673E-001	-7.39106E-009	0.00000E+000	3.40000E-001	7.38410E-004	7	...........	-327.63
	172	3.46	3.49662E-001	-7.16605E-009	0.00000E+000	3.44000E-001	7.35076E-004	7	...........	-327.63
	174	3.5	3.53656E-001	-7.29939E-009	0.00000E+000	3.48000E-001	7.52576E-004	7	...........	-327.63
	176	3.54	3.57630E-001	-7.50773E-009	0.00000E+000	3.52000E-001	7.40076E-004	7	...........	-327.63
	178	3.58	3.61647E-001	-7.44939E-009	0.00000E+000	3.56000E-001	7.16743E-004	7	...........	-327.63
	180	3.62	3.65680E-001	-7.27022E-009	0.00000E+000	3.60000E-001	7.32576E-004	7	...........	-327.63
	182	3.66	3.69624E-001	-7.30355E-009	0.00000E+000	3.64000E-001	7.35910E-004	7	...........	-327.63
	184	3.7	3.73618E-001	-7.37439E-009	0.00000E+000	3.68000E-001	7.35910E-004	7	...........	-327.63
	186	3.74	3.77336E-001	-7.45356E-009	0.00000E+000	3.72000E-001	7.20910E-004	7	...........	-327.63
	188	3.78	3.81492E-001	-7.52440E-009	0.00000E+000	3.76000E-001	7.44243E-004	7	...........	-327.63
	190	3.82	3.85493E-001	-7.72857E-009	0.00000E+000	3.80000E-001	7.32576E-004	7	...........	-327.63
	192	3.86	3.89483E-001	-7.65773E-009	0.00000E+000	3.84000E-001	7.37576E-004	7	...........	-327.63
	194	3.9	3.93468E-001	-7.68690E-009	0.00000E+000	3.88000E-001	7.40076E-004	7	...........	-327.63
	196	3.94	3.97470E-001	-7.67440E-009	0.00000E+000	3.92000E-001	7.40076E-004	7	...........	-327.63
	198	3.98	4.01466E-001	-7.51606E-009	0.00000E+000	3.96000E-001	7.21743E-004	7	...........	-327.63
	200	4.02	4.05448E-001	-7.54940E-009	0.00000E+000	4.00000E-001	7.36743E-004	7	...........	-327.63
	202	4.06	4.09463E-001	-7.53273E-009	0.00000E+000	4.04000E-001	7.46743E-004	7	...........	-327.63
	204	4.1	4.13453E-001	-7.51190E-009	0.00000E+000	4.08000E-001	7.30076E-004	7	...........	-327.63
	206	4.14	4.17543E-001	-7.58690E-009	0.00000E+000	4.12000E-001	7.32576E-004	7	...........	-327.63
	208	4.18	4.21527E-001	-7.85774E-009	0.00000E+000	4.16000E-001	7.48410E-004	7	...........	-327.63
	210	4.22	4.25506E-001	-7.92024E-009	0.00000E+000	4.20000E-001	7.39243E-004	7	...........	-327.63
	212	4.26	4.29499E-001	-7.84107E-009	0.00000E+000	4.24000E-001	7.31743E-004	7	...........	-327.63
	214	4.3	4.33469E-001	-8.00775E-009	0.00000E+000	4.28000E-001	7.32576E-004	7	...........	-327.63
	216	4.34	4.37436E-001	-7.86191E-009	0.00000E+000	4.32000E-001	7.20076E-004	7	...........	-327.63
	218	4.38	4.41422E-001	-7.94524E-009	0.00000E+000	4.36000E-001	7.25076E-004	7	...........	-327.63
	220	4.42	4.45395E-001	-7.88274E-009	0.00000E+000	4.40000E-001	7.35076E-004	7	...........	-327.63
	222	4.46	4.49363E-001	-7.98691E-009	0.00000E+000	4.44000E-001	7.40910E-004	7	...........	-327.63
	224	4.5	4.53334E-001	-8.02441E-009	0.00000E+000	4.48000E-001	7.48410E-004	7	...........	-327.63
	226	4.54	4.57327E-001	-7.83274E-009	0.00000E+000	4.52000E-001	7.42576E-004	7	...........	-327.63
	228	4.58	4.61278E-001	-8.07025E-009	0.00000E+000	4.56000E-001	7.20076E-004	7	...........	-327.63
	230	4.62	4.65252E-001	-7.99525E-009	0.00000E+000	4.60000E-001	7.27576E-004	7	...........	-327.63
	232	4.66	4.69246E-001	-7.94941E-009	0.00000E+000	4.64000E-001	7.36743E-004	7	...........	-327.63
	234	4.7	4.73222E-001	-7.90774E-009	0.00000E+000	4.68000E-001	7.43410E-004	7	...........	-327.63
	236	4.74	4.77212E-001	-8.01191E-009	0.00000E+000	4.72000E-001	7.29243E-004	7	...........	-327.63
	238	4.78	4.81189E-001	-8.06608E-009	0.00000E+000	4.76000E-001	7.25076E-004	7	...........	-327.63
	240	4.82	4.85143E-001	-7.87441E-009	0.00000E+000	4.80000E-001	7.30910E-004	7	...........	-327.63
	242	4.86	4.89063E-001	-7.94108E-009	0.00000E+000	4.84000E-001	7.20910E-004	7	...........	-327.63
	244	4.9	4.92960E-001	-8.05775E-009	0.00000E+000	4.88000E-001	7.27576E-004	7	...........	-327.63
	246	4.94	4.96913E-001	-8.08692E-009	0.00000E+000	4.92000E-001	7.26743E-004	7	...........	-327.63
	248	4.98	5.00840E-001	-8.18692E-009	0.00000E+000	4.96000E-001	7.39243E-004	7	...........	-327.63
	250	5.02	5.04811E-001	-8.20359E-009	0.00000E+000	5.00000E-001	7.44243E-004	7	...........	-327.63
	252	5.06	5.00833E-001	-8.19525E-009	0.00000E+000	4.96000E-001	7.48410E-004	7	...........	-327.63
	254	5.1	4.96897E-001	-8.01191E-009	0.00000E+000	4.92000E-001	7.30076E-004	7	...........	-327.63
	256	5.14	4.93008E-001	-7.95358E-009	0.00000E+000	4.88000E-001	7.39243E-004	7	...........	-327.63
	258	5.18	4.89039E-001	-8.22859E-009	0.00000E+000	4.84000E-001	7.13410E-004	7	...........	-327.63
	260	5.22	4.85016E-001	-8.04108E-009	0.00000E+000	4.80000E-001	7.25910E-004	7	...........	-327.63
	262	5.26	4.80993E-001	-8.06608E-009	0.00000E+000	4.76000E-001	7.34243E-004	7	...........	-327.63
	264	5.3	4.76961E-001	-8.03691E-009	0.00000E+000	4.72000E-001	7.49243E-004	7	...........	-327.63
	266	5.34	4.72863E-001	-8.24526E-009	0.00000E+000	4.68000E-001	7.39243E-004	7	...........	-327.63
	268	5.38	4.68708E-001	-8.10358E-009	0.00000E+000	4.64000E-001	7.15910E-004	7	...........	-327.63
	270	5.42	4.64576E-001	-8.27859E-009	0.00000E+000	4.60000E-001	7.37576E-004	7	...........	-327.63
	272	5.46	4.60675E-001	-8.41610E-009	0.00000E+000	4.56000E-001	7.40910E-004	7	...........	-327.63
	274	5.5	4.57056E-001	-8.34109E-009	0.00000E+000	4.52000E-001	7.31743E-004	7	...........	-327.63
	276	5.54	4.53059E-001	-8.47443E-009	0.00000E+000	4.48000E-001	7.44243E-004	7	...........	-327.63
	278	5.58	4.49178E-001	-8.64110E-009	0.00000E+000	4.44000E-001	7.35076E-004	7	...........	-327.63
	280	5.62	4.45286E-001	-8.44110E-009	0.00000E+000	4.40000E-001	7.33410E-004	7	...........	-327.63
	282	5.66	4.41271E-001	-8.38693E-009	0.00000E+000	4.36000E-001	7.31743E-004	7	...........	-327.63
	284	5.7	4.37222E-001	-8.39109E-009	0.00000E+000	4.32000E-001	7.06743E-004	7	...........	-327.63
	286	5.74	4.33144E-001	-8.45360E-009	0.00000E+000	4.28000E-001	7.26743E-004	7	...........	-327.63
	288	5.78	4.29006E-001	-8.29526E-009	0.00000E+000	4.24000E-001	7.23410E-004	7	...........	-327.63
	290	5.82	4.24846E-001	-8.29942E-009	0.00000E+000	4.20000E-001	7.45910E-004	7	...........	-327.63
	292	5.86	4.20656E-001	-8.59527E-009	0.00000E+000	4.16000E-001	7.31743E-004	7	...........	-327.63
	294	5.9	4.16516E-001	-8.52443E-009	0.00000E+000	4.12000E-001	7.40076E-004	7	...........	-327.63
	296	5.94	4.12526E-001	-8.60360E-009	0.00000E+000	4.08000E-001	7.35076E-004	7	...........	-327.63
	298	5.98	4.08672E-001	-8.60360E-009	0.00000E+000	4.04000E-001	7.25076E-004	7	...........	-327.63
	300	6.02	4.04833E-001	-8.74527E-009	0.00000E+000	4.00000E-001	7.38410E-004	7	...........	-327.63
	302	6.06	4.00761E-001	-8.63277E-009	0.00000E+000	3.96000E-001	7.45910E-004	7	...........	-327.63
	304	6.1	3.96628E-001	-8.72027E-009	0.00000E+000	3.92000E-001	7.30076E-004	7	...........	-327.63
	306	6.14	3.92546E-001	-8.59110E-009	0.00000E+000	3.88000E-001	7.19243E-004	7	...........	-327.63
	308	6.18	3.88521E-001	-8.65360E-009	0.00000E+000	3.84000E-001	7.25910E-004	7	...........	-327.63
	310	6.22	3.84502E-001	-8.63694E-009	0.00000E+000	3.80000E-001	7.16743E-004	7	...........	-327.63
	312	6.26	3.80500E-001	-8.69527E-009	0.00000E+000	3.76000E-001	7.26743E-004	7	...........	-327.63
	314	6.3	3.76488E-001	-8.71194E-009	0.00000E+000	3.72000E-001	7.42576E-004	7	...........	-327.63
	316	6.34	3.72465E-001	-8.68694E-009	0.00000E+000	3.68000E-001	7.38410E-004	7	...........	-327.63
	318	6.38	3.68454E-001	-8.84111E-009	0.00000E+000	3.64000E-001	7.32576E-004	7	...........	-327.63
	320	6.42	3.64423E-001	-8.67027E-009	0.00000E+000	3.60000E-001	7.24243E-004	7	...........	-327.63
	322	6.46	3.60399E-001	-8.58277E-009	0.00000E+000	3.56000E-001	7.27576E-004	7	...........	-327.63
	324	6.5	3.56425E-001	-8.74944E-009	0.00000E+000	3.52000E-001	7.28410E-004	7	...........	-327.63
	326	6.54	3.52405E-001	-8.77444E-009	0.00000E+000	3.48000E-001	7.39243E-004	7	...........	-327.63
	328	6.58	3.48425E-001	-8.64110E-009	0.00000E+000	3.44000E-001	7.30910E-004	7	...........	-327.63
	330	6.62	3.44453E-001	-8.62860E-009	0.00000E+000	3.40000E-001	7.31743E-004	7	...........	-327.63
	332	6.66	3.40482E-001	-8.74111E-009	0.00000E+000	3.36000E-001	7.15076E-004	7	...........	-327.63
	334	6.7	3.36512E-001	-8.52860E-009	0.00000E+000	3.32000E-001	7.35910E-004	7	...........	-327.63
	336	6.74	3.32524E-001	-8.76194E-009	0.00000E+000	3.28000E-001	7.43410E-004	7	...........	-327.63
	338	6.78	3.28507E-001	-8.60777E-009	0.00000E+000	3.24000E-001	7.31743E-004	7	...........	-327.63
	340	6.82	3.24486E-001	-8.80778E-009	0.00000E+000	3.20000E-001	7.37576E-004	7	...........	-327.63
	342	6.86	3.20442E-001	-8.84944E-009	0.00000E+000	3.16000E-001	7.42576E-004	7	...........	-327.63
	344	6.9	3.16393E-001	-8.91195E-009	0.00000E+000	3.12000E-001	7.32576E-004	7	...........	-327.63
	346	6.94	3.12345E-001	-8.66610E-009	0.00000E+000	3.08000E-001	7.25076E-004	7	...........	-327.63
	348	6.98	3.08310E-001	-8.92861E-009	0.00000E+000	3.04000E-001	7.35076E-004	7	...........	-327.63
	350	7.02	3.04270E-001	-8.96612E-009	0.00000E+000	3.00000E-001	7.30076E-004	7	...........	-327.63
	352	7.06	3.00216E-001	-8.99112E-009	0.00000E+000	2.96000E-001	7.47576E-004	7	...........	-327.63
	354	7.1	2.96128E-001	-9.25363E-009	0.00000E+000	2.92000E-001	7.20076E-004	7	...........	-327.63
	356	7.14	2.92095E-001	-9.27863E-009	0.00000E+000	2.88000E-001	7.31743E-004	7	...........	-327.63
	358	7.18	2.88095E-001	-9.17862E-009	0.00000E+000	2.84000E-001	7.23410E-004	7	...........	-327.63
	360	7.22	2.84120E-001	-9.17862E-009	0.00000E+000	2.80000E-001	7.28410E-004	7	...........	-327.63
	362	7.26	2.80173E-001	-9.06195E-009	0.00000E+000	2.76000E-001	7.33410E-004	7	...........	-327.63
	364	7.3	2.76226E-001	-9.12862E-009	0.00000E+000	2.72000E-001	7.24243E-004	7	...........	-327.63
	366	7.34	2.72306E-001	-8.94112E-009	0.00000E+000	2.68000E-001	7.37576E-004	7	...........	-327.63
	368	7.38	2.68329E-001	-9.24946E-009	0.00000E+000	2.64000E-001	7.41743E-004	7	...........	-327.63
	370	7.42	2.64334E-001	-9.29946E-009	0.00000E+000	2.60000E-001	7.29243E-004	7	...........	-327.63
	372	7.46	2.60339E-001	-9.22446E-009	0.00000E+000	2.56000E-001	7.21743E-004	7	...........	-327.63
	374	7.5	2.56330E-001	-9.28696E-009	0.00000E+000	2.52000E-001	7.29243E-004	7	...........	-327.63
	376	7.54	2.52343E-001	-9.27029E-009	0.00000E+000	2.48000E-001	7.19243E-004	7	...........	-327.63
	378	7.58	2.48333E-001	-9.25363E-009	0.00000E+000	2.44000E-001	7.41743E-004	7	...........	-327.63
	380	7.62	2.44317E-001	-9.47030E-009	0.00000E+000	2.40000E-001	7.35076E-004	7	...........	-327.63
	382	7.66	2.40301E-001	-9.27029E-009	0.00000E+000	2.36000E-001	7.20910E-004	7	...........	-327.63
	384	7.7	2.36290E-001	-9.49530E-009	0.00000E+000	2.32000E-001	7.40076E-004	7	...........	-327.63
	386	7.74	2.32266E-001	-9.43280E-009	0.00000E+000	2.28000E-001	7.18410E-004	7	...........	-327.63
	388	7.78	2.28268E-001	-9.38696E-009	0.00000E+000	2.24000E-001	7.40910E-004	7	...........	-327.63
	390	7.82	2.24248E-001	-9.33280E-009	0.00000E+000	2.20000E-001	7.24243E-004	7	...........	-327.63
	392	7.86	2.20226E-001	-9.24946E-009	0.00000E+000	2.16000E-001	7.37576E-004	7	...........	-327.63
	394	7.9	2.16201E-001	-9.17029E-009	0.00000E+000	2.12000E-001	7.32576E-004	7	...........	-327.63
	396	7.94	2.12211E-001	-9.20363E-009	0.00000E+000	2.08000E-001	7.39243E-004	7	...........	-327.63
	398	7.98	2.08168E-001	-9.20779E-009	0.00000E+000	2.04000E-001	7.44243E-004	7	...........	-327.63
	400	8.02	2.04179E-001	-9.37446E-009	0.00000E+000	2.00000E-001	7.24243E-004	7	...........	-327.63
	402	8.06	2.00195E-001	-9.11195E-009	0.00000E+000	1.96000E-001	7.52576E-004	7	...........	-327.63
	404	8.1	1.96178E-001	-9.35363E-009	0.00000E+000	1.92000E-001	7.20910E-004	7	...........	-327.63
	406	8.14	1.92174E-001	-9.19946E-009	0.00000E+000	1.88000E-001	7.33410E-004	7	...........	-327.63
	408	8.18	1.88209E-001	-8.98695E-009	0.00000E+000	1.84000E-001	7.29243E-004	7	...........	-327.63
	410	8.22	1.84228E-001	-9.25779E-009	0.00000E+000	1.80000E-001	7.34243E-004	7	...........	-327.63
	412	8.26	1.80195E-001	-9.21196E-009	0.00000E+000	1.76000E-001	7.29243E-004	7	...........	-327.63
	414	8.3	1.76185E-001	-9.04112E-009	0.00000E+000	1.72000E-001	7.15910E-004	7	...........	-327.63
	416	8.34	1.72172E-001	-9.15362E-009	0.00000E+000	1.68000E-001	7.41743E-004	7	...........	-327.63
	418	8.38	1.68148E-001	-9.29529E-009	0.00000E+000	1.64000E-001	7.31743E-004	7	...........	-327.63
	420	8.42	1.64124E-001	-9.12445E-009	0.00000E+000	1.60000E-001	7.32576E-004	7	...........	-327.63
	422	8.46	1.60101E-001	-9.02445E-009	0.00000E+000	1.56000E-001	7.24243E-004	7	...........	-327.63
	424	8.5	1.56069E-001	-9.02445E-009	0.00000E+000	1.52000E-001	7.30076E-004	7	...........	-327.63
	426	8.54	1.52075E-001	-9.01612E-009	0.00000E+000	1.48000E-001	7.35076E-004	7	...........	-327.63
	428	8.58	1.48052E-001	-9.28696E-009	0.00000E+000	1.44000E-001	7.33410E-004	7	...........	-327.63
	430	8.62	1.44029E-001	-9.16612E-009	0.00000E+000	1.40000E-001	7.39243E-004	7	...........	-327.63
	432	8.66	1.40009E-001	-9.18279E-009	0.00000E+000	1.36000E-001	7.26743E-004	7	...........	-327.63
	434	8.7	1.35979E-001	-9.17446E-009	0.00000E+000	1.32000E-001	7.22576E-004	7	...........	-327.63
	436	8.74	1.31975E-001	-9.20363E-009	0.00000E+000	1.28000E-001	7.36743E-004	7	...........	-327.63
	438	8.78	1.27956E-001	-9.28279E-009	0.00000E+000	1.24000E-001	7.26743E-004	7	...........	-327.63
	440	8.82	1.24005E-001	-9.24946E-009	0.00000E+000	1.20000E-001	7.31743E-004	7	...........	-327.63
	442	8.86	1.19989E-001	-9.11612E-009	0.00000E+000	1.16000E-001	7.26743E-004	7	...........	-327.63
	444	8.9	1.15962E-001	-9.08695E-009	0.00000E+000	1.12000E-001	7.43410E-004	7	...........	-327.63
	446	8.94	1.11944E-001	-9.07445E-009	0.00000E+000	1.08000E-001	7.20910E-004	7	...........	-327.63
	448	8.98	1.07931E-001	-9.07445E-009	0.00000E+000	1.04000E-001	7.23410E-004	7	...........	-327.63
	450	9.02	1.03934E-001	-9.02862E-009	0.00000E+000	1.00000E-001	7.25076E-004	7	...........	-327.63
	452	9.06	9.99688E-002	-8.95778E-009	0.00000E+000	9.60000E-002	7.34243E-004	7	...........	-327.63
	454	9.1	9.59722E-002	-8.94112E-009	0.00000E+000	9.20000E-002	7.51743E-004	7	...........	-327.63
	456	9.14	9.19468E-002	-8.96612E-009	0.00000E+000	8.80000E-002	7.21743E-004	7	...........	-327.63
	458	9.18	8.79147E-002	-9.02028E-009	0.00000E+000	8.40000E-002	7.21743E-004	7	...........	-327.63
	460	9.22	8.38976E-002	-8.87861E-009	0.00000E+000	8.00000E-002	7.17576E-004	7	...........	-327.63
	462	9.26	7.98709E-002	-8.95778E-009	0.00000E+000	7.60000E-002	7.35910E-004	7	...........	-327.63
	464	9.3	7.58438E-002	-8.99945E-009	0.00000E+000	7.20000E-002	7.35910E-004	7	...........	-327.63
	466	9.34	7.18426E-002	-8.89528E-009	0.00000E+000	6.80000E-002	7.38410E-004	7	...........	-327.63
	468	9.38	6.78355E-002	-8.93278E-009	0.00000E+000	6.40000E-002	7.34243E-004	7	...........	-327.63
	470	9.42	6.38155E-002	-8.93278E-009	0.00000E+000	6.00000E-002	7.29243E-004	7	...........	-327.63
	472	9.46	5.98030E-002	-8.92445E-009	0.00000E+000	5.60000E-002	7.24243E-004	7	...........	-327.63
	474	9.5	5.57951E-002	-8.86611E-009	0.00000E+000	5.20000E-002	7.37576E-004	7	...........	-327.63
	476	9.54	5.17613E-002	-8.99945E-009	0.00000E+000	4.80000E-002	7.30076E-004	7	...........	-327.63
	478	9.58	4.78038E-002	-8.93278E-009	0.00000E+000	4.40000E-002	7.25910E-004	7	...........	-327.63
	480	9.62	4.38476E-002	-8.94528E-009	0.00000E+000	4.00000E-002	7.28410E-004	7	...........	-327.63
	482	9.66	3.97626E-002	-8.84528E-009	0.00000E+000	3.60000E-002	7.27576E-004	7	...........	-327.63
	484	9.7	3.57618E-002	-8.89945E-009	0.00000E+000	3.20000E-002	7.33410E-004	7	...........	-327.63
	486	9.74	3.17568E-002	-8.90361E-009	0.00000E+000	2.80000E-002	7.38410E-004	7	...........	-327.63
	488	9.78	2.77268E-002	-8.83278E-009	0.00000E+000	2.40000E-002	7.10076E-004	7	...........	-327.63
	490	9.82	2.39276E-002	-8.82444E-009	0.00000E+000	2.00000E-002	7.17576E-004	7	...........	-327.63
	492	9.86	1.97834E-002	-8.86611E-009	0.00000E+000	1.60000E-002	7.31743E-004	7	...........	-327.63
	494	9.9	1.57863E-002	-8.90778E-009	0.00000E+000	1.20000E-002	7.35910E-004	7	...........	-327.63
	496	9.94	1.16751E-002	-9.12862E-009	0.00000E+000	8.00000E-003	7.32576E-004	7	...........	-327.63
	498	9.98	7.73009E-003	-8.82028E-009	0.00000E+000	4.00000E-003	7.30076E-004	7	...........	-327.63
	500	10.02	3.94634E-003	-8.97862E-009	0.00000E+000	0.00000E+000	7.39243E-004	7	...........	-327.63
	502	10.06	1.13423E-004	-9.07029E-009	0.00000E+000	-4.00000E-003	7.43410E-004	7	...........	-327.63
	504	10.1	-4.17658E-003	-9.00778E-009	0.00000E+000	-8.00000E-003	7.45910E-004	7	...........	-327.63
	506	10.14	-8.12366E-003	-9.03278E-009	0.00000E+000	-1.20000E-002	7.35910E-004	7	...........	-327.63
	508	10.18	-1.22787E-002	-8.87445E-009	0.00000E+000	-1.60000E-002	7.28410E-004	7	...........	-327.63
	510	10.22	-1.61020E-002	-8.83694E-009	0.00000E+000	-2.00000E-002	7.35076E-004	7	...........	-327.63
	512	10.26	-2.03537E-002	-8.72027E-009	0.00000E+000	-2.40000E-002	7.34243E-004	7	...........	-327.63
	514	10.3	-2.43424E-002	-8.86611E-009	0.00000E+000	-2.80000E-002	7.27576E-004	7	...........	-327.63
	516	10.34	-2.83387E-002	-8.72027E-009	0.00000E+000	-3.20000E-002	7.40076E-004	7	...........	-327.63
	518	10.38	-3.24074E-002	-8.69944E-009	0.00000E+000	-3.60000E-002	7.35076E-004	7	...........	-327.63
	520	10.42	-3.63407E-002	-8.69527E-009	0.00000E+000	-4.00000E-002	7.40910E-004	7	...........	-327.63
	522	10.46	-4.04599E-002	-8.53277E-009	0.00000E+000	-4.40000E-002	7.34243E-004	7	...........	-327.63
	524	10.5	-4.44182E-002	-8.57027E-009	0.00000E+000	-4.80000E-002	7.41743E-004	7	...........	-327.63
	526	10.54	-4.83978E-002	-8.57443E-009	0.00000E+000	-5.20000E-002	7.25910E-004	7	...........	-327.63
	528	10.58	-5.23274E-002	-8.44110E-009	0.00000E+000	-5.60000E-002	7.31743E-004	7	...........	-327.63
	530	10.62	-5.63107E-002	-8.45776E-009	0.00000E+000	-6.00000E-002	7.39243E-004	7	...........	-327.63
	532	10.66	-6.04099E-002	-8.53693E-009	0.00000E+000	-6.40000E-002	7.29243E-004	7	...........	-327.63
	534	10.7	-6.43324E-002	-8.44110E-009	0.00000E+000	-6.80000E-002	7.47576E-004	7	...........	-327.63
	536	10.74	-6.84832E-002	-8.59110E-009	0.00000E+000	-7.20000E-002	7.27576E-004	7	...........	-327.63
	538	10.78	-7.24770E-002	-8.61610E-009	0.00000E+000	-7.60000E-002	7.28410E-004	7	...........	-327.63
	540	10.82	-7.64949E-002	-8.49110E-009	0.00000E+000	-8.00000E-002	7.34243E-004	7	...........	-327.63
	542	10.86	-8.04507E-002	-8.37026E-009	0.00000E+000	-8.40000E-002	7.41743E-004	7	...........	-327.63
	544	10.9	-8.45078E-002	-8.51610E-009	0.00000E+000	-8.80000E-002	7.40076E-004	7	...........	-327.63
	546	10.94	-8.84874E-002	-8.25776E-009	0.00000E+000	-9.20000E-002	7.45076E-004	7	...........	-327.63
	548	10.98	-9.25653E-002	-8.40359E-009	0.00000E+000	-9.60000E-002	7.37576E-004	7	...........	-327.63
	550	11.02	-9.65270E-002	-8.27026E-009	0.00000E+000	-1.00000E-001	7.35910E-004	7	...........	-327.63
	552	11.06	-1.00565E-001	-8.23275E-009	0.00000E+000	-1.04000E-001	7.45076E-004	7	...........	-327.63
	554	11.1	-1.04572E-001	-8.40359E-009	0.00000E+000	-1.08000E-001	7.50076E-004	7	...........	-327.63
	556	11.14	-1.08591E-001	-8.52443E-009	0.00000E+000	-1.12000E-001	7.44243E-004	7	...........	-327.63
	558	11.18	-1.12563E-001	-8.30776E-009	0.00000E+000	-1.16000E-001	7.50076E-004	7	...........	-327.63
	560	11.22	-1.16612E-001	-8.36609E-009	0.00000E+000	-1.20000E-001	7.36743E-004	7	...........	-327.63
	562	11.26	-1.20617E-001	-8.44526E-009	0.00000E+000	-1.24000E-001	7.43410E-004	7	...........	-327.63
	564	11.3	-1.24650E-001	-8.49110E-009	0.00000E+000	-1.28000E-001	7.42576E-004	7	...........	-327.63
	566	11.34	-1.28646E-001	-8.49526E-009	0.00000E+000	-1.32000E-001	7.28410E-004	7	...........	-327.63
	568	11.38	-1.32636E-001	-8.40776E-009	0.00000E+000	-1.36000E-001	7.58410E-004	7	...........	-327.63
	570	11.42	-1.36655E-001	-8.47443E-009	0.00000E+000	-1.40000E-001	7.55910E-004	7	...........	-327.63
	572	11.46	-1.40692E-001	-8.23275E-009	0.00000E+000	-1.44000E-001	7.41743E-004	7	...........	-327.63
	574	11.5	-1.44719E-001	-8.17859E-009	0.00000E+000	-1.48000E-001	7.35910E-004	7	...........	-327.63
	576	11.54	-1.48727E-001	-8.15775E-009	0.00000E+000	-1.52000E-001	7.42576E-004	7	...........	-327.63
	578	11.58	-1.52717E-001	-8.27026E-009	0.00000E+000	-1.56000E-001	7.35910E-004	7	...........	-327.63
	580	11.62	-1.56730E-001	-8.18275E-009	0.00000E+000	-1.60000E-001	7.44243E-004	7	...........	-327.63
	582	11.66	-1.60737E-001	-8.04525E-009	0.00000E+000	-1.64000E-001	7.44243E-004	7	...........	-327.63
	584	11.7	-1.64746E-001	-8.16609E-009	0.00000E+000	-1.68000E-001	7.55910E-004	7	...........	-327.63
	586	11.74	-1.68764E-001	-8.11192E-009	0.00000E+000	-1.72000E-001	7.47576E-004	7	...........	-327.63
	588	11.78	-1.72777E-001	-8.03275E-009	0.00000E+000	-1.76000E-001	7.19243E-004	7	...........	-327.63
	590	11.82	-1.76790E-001	-8.07442E-009	0.00000E+000	-1.80000E-001	7.43410E-004	7	...........	-327.63
	592	11.86	-1.80804E-001	-7.96608E-009	0.00000E+000	-1.84000E-001	7.36743E-004	7	...........	-327.63
	594	11.9	-1.84804E-001	-8.02025E-009	0.00000E+000	-1.88000E-001	7.21743E-004	7	...........	-327.63
	596	11.94	-1.88813E-001	-8.03275E-009	0.00000E+000	-1.92000E-001	7.43410E-004	7	...........	-327.63
	598	11.98	-1.92817E-001	-8.06608E-009	0.00000E+000	-1.96000E-001	7.40910E-004	7	...........	-327.63
	600	12.02	-1.96833E-001	-7.99108E-009	0.00000E+000	-2.00000E-001	7.30076E-004	7	...........	-327.63
	602	12.06	-2.00859E-001	-7.88274E-009	0.00000E+000	-2.04000E-001	7.19243E-004	7	...........	-327.63
	604	12.1	-2.04869E-001	-7.84524E-009	0.00000E+000	-2.08000E-001	7.36743E-004	7	...........	-327.63
	606	12.14	-2.08876E-001	-7.69107E-009	0.00000E+000	-2.12000E-001	7.35076E-004	7	...........	-327.63
	608	12.18	-2.12893E-001	-7.56190E-009	0.00000E+000	-2.16000E-001	7.34243E-004	7	...........	-327.63
	610	12.22	-2.16916E-001	-7.61607E-009	0.00000E+000	-2.20000E-001	7.46743E-004	7	...........	-327.63
	612	12.26	-2.20922E-001	-7.57856E-009	0.00000E+000	-2.24000E-001	7.38410E-004	7	...........	-327.63
	614	12.3	-2.24936E-001	-7.49106E-009	0.00000E+000	-2.28000E-001	7.36743E-004	7	...........	-327.63
	616	12.34	-2.28949E-001	-7.42023E-009	0.00000E+000	-2.32000E-001	7.44243E-004	7	...........	-327.63
	618	12.38	-2.32946E-001	-7.29105E-009	0.00000E+000	-2.36000E-001	7.35076E-004	7	...........	-327.63
	620	12.42	-2.36979E-001	-7.35772E-009	0.00000E+000	-2.40000E-001	7.52576E-004	7	...........	-327.63
	622	12.46	-2.40993E-001	-7.38272E-009	0.00000E+000	-2.44000E-001	7.45910E-004	7	...........	-327.63
	624	12.5	-2.44992E-001	-7.13271E-009	0.00000E+000	-2.48000E-001	7.47576E-004	7	...........	-327.63
	626	12.54	-2.49010E-001	-7.08688E-009	0.00000E+000	-2.52000E-001	7.39243E-004	7	...........	-327.63
	628	12.58	-2.53054E-001	-7.08688E-009	0.00000E+000	-2.56000E-001	7.35076E-004	7	...........	-327.63
	630	12.62	-2.57044E-001	-7.21188E-009	0.00000E+000	-2.60000E-001	7.34243E-004	7	...........	-327.63
	632	12.66	-2.61055E-001	-6.73270E-009	0.00000E+000	-2.64000E-001	7.35076E-004	7	...........	-327.63
	634	12.7	-2.65079E-001	-6.95771E-009	0.00000E+000	-2.68000E-001	7.35076E-004	7	...........	-327.63
	636	12.74	-2.69102E-001	-6.71603E-009	0.00000E+000	-2.72000E-001	7.40076E-004	7	...........	-327.63
	638	12.78	-2.73109E-001	-6.52852E-009	0.00000E+000	-2.76000E-001	7.37576E-004	7	...........	-327.63
	640	12.82	-2.77119E-001	-6.68686E-009	0.00000E+000	-2.80000E-001	7.25076E-004	7	...........	-327.63
	642	12.86	-2.81136E-001	-6.66603E-009	0.00000E+000	-2.84000E-001	7.37576E-004	7	...........	-327.63
	644	12.9	-2.85157E-001	-6.42852E-009	0.00000E+000	-2.88000E-001	7.31743E-004	7	...........	-327.63
	646	12.94	-2.89189E-001	-6.50769E-009	0.00000E+000	-2.92000E-001	7.26743E-004	7	...........	-327.63
	648	12.98	-2.93205E-001	-6.57436E-009	0.00000E+000	-2.96000E-001	7.36743E-004	7	...........	-327.63
	650	13.02	-2.97217E-001	-6.30768E-009	0.00000E+000	-3.00000E-001	7.32576E-004	7	...........	-327.63
	652	13.06	-3.01234E-001	-6.04101E-009	0.00000E+000	-3.04000E-001	7.33410E-004	7	...........	-327.63
	654	13.1	-3.05211E-001	-6.20351E-009	0.00000E+000	-3.08000E-001	7.31743E-004	7	...........	-327.63
	656	13.14	-3.09190E-001	-6.14518E-009	0.00000E+000	-3.12000E-001	7.45076E-004	7	...........	-327.63
	658	13.18	-3.13207E-001	-5.95350E-009	0.00000E+000	-3.16000E-001	7.37576E-004	7	...........	-327.63
	660	13.22	-3.17269E-001	-5.88267E-009	0.00000E+000	-3.20000E-001	7.35910E-004	7	...........	-327.63
	662	13.26	-3.21207E-001	-5.89100E-009	0.00000E+000	-3.24000E-001	7.38410E-004	7	...........	-327.63
	664	13.3	-3.25282E-001	-5.70349E-009	0.00000E+000	-3.28000E-001	7.23410E-004	7	...........	-327.63
	666	13.34	-3.29343E-001	-5.97434E-009	0.00000E+000	-3.32000E-001	7.16743E-004	7	...........	-327.63
	668	13.38	-3.33349E-001	-5.77433E-009	0.00000E+000	-3.36000E-001	7.33410E-004	7	...........	-327.63
	670	13.42	-3.37350E-001	-5.73683E-009	0.00000E+000	-3.40000E-001	7.35910E-004	7	...........	-327.63
	672	13.46	-3.41382E-001	-5.53682E-009	0.00000E+000	-3.44000E-001	7.30076E-004	7	...........	-327.63
	674	13.5	-3.45396E-001	-5.50349E-009	0.00000E+000	-3.48000E-001	7.27576E-004	7	...........	-327.63
	676	13.54	-3.49418E-001	-5.42848E-009	0.00000E+000	-3.52000E-001	7.28410E-004	7	...........	-327.63
	678	13.58	-3.53445E-001	-5.34931E-009	0.00000E+000	-3.56000E-001	7.48410E-004	7	...........	-327.63
	680	13.62	-3.57472E-001	-5.42432E-009	0.00000E+000	-3.60000E-001	7.35910E-004	7	...........	-327.63
	682	13.66	-3.61407E-001	-5.06597E-009	0.00000E+000	-3.64000E-001	7.40910E-004	7	...........	-327.63
	684	13.7	-3.65426E-001	-5.28681E-009	0.00000E+000	-3.68000E-001	7.40076E-004	7	...........	-327.63
	686	13.74	-3.69383E-001	-5.04930E-009	0.00000E+000	-3.72000E-001	7.44243E-004	7	...........	-327.63
	688	13.78	-3.73485E-001	-4.89513E-009	0.00000E+000	-3.76000E-001	7.34243E-004	7	...........	-327.63
	690	13.82	-3.77387E-001	-4.94097E-009	0.00000E+000	-3.80000E-001	7.29243E-004	7	...........	-327.63
	692	13.86	-3.81493E-001	-4.87430E-009	0.00000E+000	-3.84000E-001	7.33410E-004	7	...........	-327.63
	694	13.9	-3.85391E-001	-4.80346E-009	0.00000E+000	-3.88000E-001	7.58410E-004	7	...........	-327.63
	696	13.94	-3.89566E-001	-4.65345E-009	0.00000E+000	-3.92000E-001	7.53410E-004	7	...........	-327.63
	698	13.98	-3.93602E-001	-4.76596E-009	0.00000E+000	-3.96000E-001	7.56743E-004	7	...........	-327.63
	700	14.02	-3.97615E-001	-4.40761E-009	0.00000E+000	-4.00000E-001	7.33410E-004	7	...........	-327.63
	702	14.06	-4.01644E-001	-4.47011E-009	0.00000E+000	-4.04000E-001	7.32576E-004	7	...........	-327.63
	704	14.1	-4.05668E-001	-4.32428E-009	0.00000E+000	-4.08000E-001	7.36743E-004	7	...........	-327.63
	706	14.14	-4.09686E-001	-4.27011E-009	0.00000E+000	-4.12000E-001	7.45076E-004	7	...........	-327.63
	708	14.18	-4.13693E-001	-4.16177E-009	0.00000E+000	-4.16000E-001	7.43410E-004	7	...........	-327.63
	710	14.22	-4.17292E-001	-4.09510E-009	0.00000E+000	-4.20000E-001	7.53410E-004	7	...........	-327.63
	712	14.26	-4.21732E-001	-3.96593E-009	0.00000E+000	-4.24000E-001	7.38410E-004	7	...........	-327.63
	714	14.3	-4.25733E-001	-3.97426E-009	0.00000E+000	-4.28000E-001	7.16743E-004	7	...........	-327.63
	716	14.34	-4.29769E-001	-3.71592E-009	0.00000E+000	-4.32000E-001	7.36743E-004	7	...........	-327.63
	718	14.38	-4.33794E-001	-3.73259E-009	0.00000E+000	-4.36000E-001	7.34243E-004	7	...........	-327.63
	720	14.42	-4.37797E-001	-3.70342E-009	0.00000E+000	-4.40000E-001	7.43410E-004	7	...........	-327.63
	722	14.46	-4.41820E-001	-3.67008E-009	0.00000E+000	-4.44000E-001	7.47576E-004	7	...........	-327.63
	724	14.5	-4.45865E-001	-3.46591E-009	0.00000E+000	-4.48000E-001	7.40076E-004	7	...........	-327.63
	726	14.54	-4.49890E-001	-3.77842E-009	0.00000E+000	-4.52000E-001	7.47576E-004	7	...........	-327.63
	728	14.58	-4.53899E-001	-3.45341E-009	0.00000E+000	-4.56000E-001	7.37576E-004	7	...........	-327.63
	730	14.62	-4.57938E-001	-3.34924E-009	0.00000E+000	-4.60000E-001	7.37576E-004	7	...........	-327.63
	732	14.66	-4.61936E-001	-3.16173E-009	0.00000E+000	-4.64000E-001	7.38410E-004	7	...........	-327.63
	734	14.7	-4.65968E-001	-3.27840E-009	0.00000E+000	-4.68000E-001	7.48410E-004	7	...........	-327.63
	736	14.74	-4.69999E-001	-2.99089E-009	0.00000E+000	-4.72000E-001	7.48410E-004	7	...........	-327.63
	738	14.78	-4.74034E-001	-2.78672E-009	0.00000E+000	-4.76000E-001	7.45076E-004	7	...........	-327.63
	740	14.82	-4.78056E-001	-2.79922E-009	0.00000E+000	-4.80000E-001	7.36743E-004	7	...........	-327.63
	742	14.86	-4.82072E-001	-2.69505E-009	0.00000E+000	-4.84000E-001	7.45076E-004	7	...........	-327.63
	744	14.9	-4.86100E-001	-2.37837E-009	0.00000E+000	-4.88000E-001	7.25910E-004	7	...........	-327.63
	746	14.94	-4.90116E-001	-2.14920E-009	0.00000E+000	-4.92000E-001	7.35076E-004	7	...........	-327.63
	748	14.98	-4.94146E-001	-2.17003E-009	0.00000E+000	-4.96000E-001	7.37576E-004	7	...........	-327.63
	750	15.02	-4.98187E-001	-2.12003E-009	0.00000E+000	-5.00000E-001	7.38410E-004	7	...........	-327.63
CURVE2	TABLE
	Pt	T	Vf	Im	Vu	Sig	Ach	IERange	Over	Temp
	#	s	V vs. Ref.	A	V	V	V	#	bits	deg C
	751	15.04	-4.96198E-001	-1.94502E-009	0.00000E+000	-4.98000E-001	6.61743E-004	7	...........	-327.63
	753	15.08	-4.92235E-001	-1.82835E-009	0.00000E+000	-4.94000E-001	6.61743E-004	7	...........	-327.63
	755	15.12	-4.88260E-001	-1.82835E-009	0.00000E+000	-4.90000E-001	6.47576E-004	7	...........	-327.63
[...]
	2803	56.08	-3.97668E-001	2.01308E-008	0.00000E+000	-3.94000E-001	4.33410E-004	7	...........	-327.63
	2804	56.1	-3.95678E-001	2.02683E-008	0.00000E+000	-3.92000E-001	4.43410E-004	7	...........	-327.63
	2805	56.12	-3.93671E-001	2.00558E-008	0.00000E+000	-3.90000E-001	4.42576E-004	7	...........	-327.63
	2806	56.14	-3.91662E-001	2.02433E-008	0.00000E+000	-3.88000E-001	4.36743E-004	7	...........	-327.63
	2807	56.16	-3.89683E-001	2.02975E-008	0.00000E+000	-3.86000E-001	4.50076E-004	7	...........	-327.63
	2808	56.18	-3.87677E-001	2.04016E-008	0.00000E+000	-3.84000E-001	4.40910E-004	7	...........	-327.63
	2809	56.2	-3.85694E-001	2.02058E-008	0.00000E+000	-3.82000E-001	4.60076E-004	7	...........	-327.63
	2810	56.22	-3.83694E-001	2.03225E-008	0.00000E+000	-3.80000E-001	4.55076E-004	7	...........	-327.63
	2811	56.24	-3.81717E-001	2.02475E-008	0.00000E+000	-3.78000E-001	4.37576E-004	7	...........	-327.63
	2812	56.26	-3.79723E-001	2.03266E-008	0.00000E+000	-3.76000E-001	4.58410E-004	7	...........	-327.63
	2813	56.28	-3.77736E-001	2.02766E-008	0.00000E+000	-3.74000E-001	4.45076E-004	7	...........	-327.63
	2814	56.3	-3.75727E-001	2.03391E-008	0.00000E+000	-3.72000E-001	4.60076E-004	7	...........	-327.63
	2815	56.32	-3.73739E-001	2.03683E-008	0.00000E+000	-3.70000E-001	4.35076E-004	7	...........	-327.63
	2816	56.34	-3.71737E-001	2.04433E-008	0.00000E+000	-3.68000E-001	4.51743E-004	7	...........	-327.63
	2817	56.36	-3.69764E-001	2.01391E-008	0.00000E+000	-3.66000E-001	4.35910E-004	7	...........	-327.63
	2818	56.38	-3.67752E-001	2.00766E-008	0.00000E+000	-3.64000E-001	4.51743E-004	7	...........	-327.63
	2819	56.4	-3.65755E-001	2.02141E-008	0.00000E+000	-3.62000E-001	4.33410E-004	7	...........	-327.63
	2820	56.42	-3.63754E-001	2.00725E-008	0.00000E+000	-3.60000E-001	4.60076E-004	7	...........	-327.63
	2821	56.44	-3.61767E-001	2.01100E-008	0.00000E+000	-3.58000E-001	4.41743E-004	7	...........	-327.63
	2822	56.46	-3.59772E-001	2.03266E-008	0.00000E+000	-3.56000E-001	4.46743E-004	7	...........	-327.63
	2823	56.48	-3.57787E-001	2.03433E-008	0.00000E+000	-3.54000E-001	4.14243E-004	7	...........	-327.63
	2824	56.5	-3.55808E-001	2.02225E-008	0.00000E+000	-3.52000E-001	4.44243E-004	7	...........	-327.63
	2825	56.52	-3.53809E-001	2.01058E-008	0.00000E+000	-3.50000E-001	4.41743E-004	7	...........	-327.63
	2826	56.54	-3.51825E-001	2.03433E-008	0.00000E+000	-3.48000E-001	4.45910E-004	7	...........	-327.63
	2827	56.56	-3.49828E-001	2.01808E-008	0.00000E+000	-3.46000E-001	4.39243E-004	7	...........	-327.63
	2828	56.58	-3.47829E-001	2.02225E-008	0.00000E+000	-3.44000E-001	4.35910E-004	7	...........	-327.63
	2829	56.6	-3.45855E-001	2.01183E-008	0.00000E+000	-3.42000E-001	4.43410E-004	7	...........	-327.63
	2830	56.62	-3.43859E-001	2.02058E-008	0.00000E+000	-3.40000E-001	4.58410E-004	7	...........	-327.63
	2831	56.64	-3.41828E-001	2.02808E-008	0.00000E+000	-3.38000E-001	4.50076E-004	7	...........	-327.63
	2832	56.66	-3.39842E-001	2.01475E-008	0.00000E+000	-3.36000E-001	4.65076E-004	7	...........	-327.63
	2833	56.68	-3.37840E-001	2.01308E-008	0.00000E+000	-3.34000E-001	4.37576E-004	7	...........	-327.63
	2834	56.7	-3.35873E-001	2.01308E-008	0.00000E+000	-3.32000E-001	4.54243E-004	7	...........	-327.63
	2835	56.72	-3.33869E-001	2.01350E-008	0.00000E+000	-3.30000E-001	4.30076E-004	7	...........	-327.63
	2836	56.74	-3.31889E-001	2.02725E-008	0.00000E+000	-3.28000E-001	4.40076E-004	7	...........	-327.63
	2837	56.76	-3.29895E-001	2.00850E-008	0.00000E+000	-3.26000E-001	4.23410E-004	7	...........	-327.63
	2838	56.78	-3.27894E-001	2.02475E-008	0.00000E+000	-3.24000E-001	4.44243E-004	7	...........	-327.63
	2839	56.8	-3.25910E-001	2.02558E-008	0.00000E+000	-3.22000E-001	4.48410E-004	7	...........	-327.63
	2840	56.82	-3.23917E-001	2.00808E-008	0.00000E+000	-3.20000E-001	4.38410E-004	7	...........	-327.63
	2841	56.84	-3.21921E-001	2.02100E-008	0.00000E+000	-3.18000E-001	4.23410E-004	7	...........	-327.63
	2842	56.86	-3.19933E-001	2.01350E-008	0.00000E+000	-3.16000E-001	4.66743E-004	7	...........	-327.63
	2843	56.88	-3.17944E-001	2.02641E-008	0.00000E+000	-3.14000E-001	4.35910E-004	7	...........	-327.63
	2844	56.9	-3.15935E-001	2.01016E-008	0.00000E+000	-3.12000E-001	4.60910E-004	7	...........	-327.63
	2845	56.92	-3.13937E-001	2.01183E-008	0.00000E+000	-3.10000E-001	4.40910E-004	7	...........	-327.63
	2846	56.94	-3.11942E-001	2.01808E-008	0.00000E+000	-3.08000E-001	4.44243E-004	7	...........	-327.63
	2847	56.96	-3.09960E-001	2.01141E-008	0.00000E+000	-3.06000E-001	4.33410E-004	7	...........	-327.63
	2848	56.98	-3.07971E-001	2.03558E-008	0.00000E+000	-3.04000E-001	4.49243E-004	7	...........	-327.63
	2849	57	-3.05999E-001	2.02683E-008	0.00000E+000	-3.02000E-001	4.32576E-004	7	...........	-327.63
	2850	57.02	-3.04003E-001	2.01891E-008	0.00000E+000	-3.00000E-001	4.50076E-004	7	...........	-327.63
	2851	57.04	-3.01996E-001	2.03058E-008	0.00000E+000	-2.98000E-001	4.34243E-004	7	...........	-327.63
	2852	57.06	-3.00020E-001	2.03891E-008	0.00000E+000	-2.96000E-001	4.44243E-004	7	...........	-327.63
	2853	57.08	-2.98021E-001	2.03350E-008	0.00000E+000	-2.94000E-001	4.43410E-004	7	...........	-327.63
	2854	57.1	-2.96021E-001	2.01725E-008	0.00000E+000	-2.92000E-001	4.42576E-004	7	...........	-327.63
	2855	57.12	-2.94026E-001	2.03558E-008	0.00000E+000	-2.90000E-001	4.40076E-004	7	...........	-327.63
	2856	57.14	-2.92040E-001	2.02641E-008	0.00000E+000	-2.88000E-001	4.44243E-004	7	...........	-327.63
	2857	57.16	-2.90046E-001	2.03391E-008	0.00000E+000	-2.86000E-001	4.34243E-004	7	...........	-327.63
	2858	57.18	-2.88034E-001	2.04266E-008	0.00000E+000	-2.84000E-001	4.35076E-004	7	...........	-327.63
	2859	57.2	-2.86049E-001	2.06767E-008	0.00000E+000	-2.82000E-001	4.51743E-004	7	...........	-327.63
	2860	57.22	-2.84043E-001	2.05100E-008	0.00000E+000	-2.80000E-001	4.45076E-004	7	...........	-327.63
	2861	57.24	-2.82052E-001	2.04016E-008	0.00000E+000	-2.78000E-001	4.45910E-004	7	...........	-327.63
	2862	57.26	-2.80072E-001	2.05975E-008	0.00000E+000	-2.76000E-001	4.50076E-004	7	...........	-327.63
	2863	57.28	-2.78078E-001	2.05308E-008	0.00000E+000	-2.74000E-001	4.27576E-004	7	...........	-327.63
	2864	57.3	-2.76084E-001	2.04600E-008	0.00000E+000	-2.72000E-001	4.45910E-004	7	...........	-327.63
	2865	57.32	-2.74076E-001	2.05975E-008	0.00000E+000	-2.70000E-001	4.24243E-004	7	...........	-327.63
	2866	57.34	-2.72091E-001	2.04391E-008	0.00000E+000	-2.68000E-001	4.24243E-004	7	...........	-327.63
	2867	57.36	-2.70096E-001	2.05642E-008	0.00000E+000	-2.66000E-001	4.45076E-004	7	...........	-327.63
	2868	57.38	-2.68103E-001	2.05058E-008	0.00000E+000	-2.64000E-001	4.42576E-004	7	...........	-327.63
	2869	57.4	-2.66123E-001	2.05767E-008	0.00000E+000	-2.62000E-001	4.58410E-004	7	...........	-327.63
	2870	57.42	-2.64112E-001	2.06933E-008	0.00000E+000	-2.60000E-001	4.37576E-004	7	...........	-327.63
	2871	57.44	-2.62121E-001	2.05975E-008	0.00000E+000	-2.58000E-001	4.40076E-004	7	...........	-327.63
	2872	57.46	-2.60128E-001	2.06808E-008	0.00000E+000	-2.56000E-001	4.49243E-004	7	...........	-327.63
	2873	57.48	-2.58135E-001	2.07642E-008	0.00000E+000	-2.54000E-001	4.49243E-004	7	...........	-327.63
	2874	57.5	-2.56139E-001	2.07058E-008	0.00000E+000	-2.52000E-001	4.43410E-004	7	...........	-327.63
	2875	57.52	-2.54181E-001	2.07308E-008	0.00000E+000	-2.50000E-001	4.45076E-004	7	...........	-327.63
	2876	57.54	-2.52169E-001	2.07058E-008	0.00000E+000	-2.48000E-001	4.54243E-004	7	...........	-327.63
	2877	57.56	-2.50183E-001	2.08183E-008	0.00000E+000	-2.46000E-001	4.36743E-004	7	...........	-327.63
	2878	57.58	-2.48172E-001	2.07933E-008	0.00000E+000	-2.44000E-001	4.47576E-004	7	...........	-327.63
	2879	57.6	-2.46179E-001	2.07183E-008	0.00000E+000	-2.42000E-001	4.47576E-004	7	...........	-327.63
	2880	57.62	-2.44193E-001	2.07517E-008	0.00000E+000	-2.40000E-001	4.39243E-004	7	...........	-327.63
	2881	57.64	-2.42202E-001	2.06475E-008	0.00000E+000	-2.38000E-001	4.50910E-004	7	...........	-327.63
	2882	57.66	-2.40192E-001	2.06767E-008	0.00000E+000	-2.36000E-001	4.43410E-004	7	...........	-327.63
	2883	57.68	-2.38198E-001	2.07350E-008	0.00000E+000	-2.34000E-001	4.39243E-004	7	...........	-327.63
	2884	57.7	-2.36220E-001	2.07558E-008	0.00000E+000	-2.32000E-001	4.35910E-004	7	...........	-327.63
	2885	57.72	-2.34208E-001	2.09600E-008	0.00000E+000	-2.30000E-001	4.47576E-004	7	...........	-327.63
	2886	57.74	-2.32216E-001	2.07600E-008	0.00000E+000	-2.28000E-001	4.60076E-004	7	...........	-327.63
	2887	57.76	-2.30235E-001	2.06558E-008	0.00000E+000	-2.26000E-001	4.50076E-004	7	...........	-327.63
	2888	57.78	-2.28248E-001	2.08183E-008	0.00000E+000	-2.24000E-001	4.32576E-004	7	...........	-327.63
	2889	57.8	-2.26251E-001	2.08017E-008	0.00000E+000	-2.22000E-001	4.42576E-004	7	...........	-327.63
	2890	57.82	-2.24250E-001	2.07183E-008	0.00000E+000	-2.20000E-001	4.40910E-004	7	...........	-327.63
	2891	57.84	-2.22254E-001	2.06475E-008	0.00000E+000	-2.18000E-001	4.44243E-004	7	...........	-327.63
	2892	57.86	-2.20262E-001	2.06642E-008	0.00000E+000	-2.16000E-001	4.58410E-004	7	...........	-327.63
	2893	57.88	-2.18268E-001	2.08142E-008	0.00000E+000	-2.14000E-001	4.43410E-004	7	...........	-327.63
	2894	57.9	-2.16269E-001	2.09475E-008	0.00000E+000	-2.12000E-001	4.30910E-004	7	...........	-327.63
	2895	57.92	-2.14276E-001	2.06475E-008	0.00000E+000	-2.10000E-001	4.50910E-004	7	...........	-327.63
	2896	57.94	-2.12289E-001	2.08433E-008	0.00000E+000	-2.08000E-001	4.49243E-004	7	...........	-327.63
	2897	57.96	-2.10280E-001	2.07933E-008	0.00000E+000	-2.06000E-001	4.36743E-004	7	...........	-327.63
	2898	57.98	-2.08279E-001	2.08225E-008	0.00000E+000	-2.04000E-001	4.35076E-004	7	...........	-327.63
	2899	58	-2.06285E-001	2.07100E-008	0.00000E+000	-2.02000E-001	4.43410E-004	7	...........	-327.63
	2900	58.02	-2.04306E-001	2.07308E-008	0.00000E+000	-2.00000E-001	4.41743E-004	7	...........	-327.63
	2901	58.04	-2.02322E-001	2.06225E-008	0.00000E+000	-1.98000E-001	4.34243E-004	7	...........	-327.63
	2902	58.06	-2.00329E-001	2.07517E-008	0.00000E+000	-1.96000E-001	4.41743E-004	7	...........	-327.63
	2903	58.08	-1.98336E-001	2.08892E-008	0.00000E+000	-1.94000E-001	4.42576E-004	7	...........	-327.63
	2904	58.1	-1.96349E-001	2.08058E-008	0.00000E+000	-1.92000E-001	4.44243E-004	7	...........	-327.63
	2905	58.12	-1.94342E-001	2.07933E-008	0.00000E+000	-1.90000E-001	4.52576E-004	7	...........	-327.63
	2906	58.14	-1.92347E-001	2.10308E-008	0.00000E+000	-1.88000E-001	4.54243E-004	7	...........	-327.63
	2907	58.16	-1.90347E-001	2.08975E-008	0.00000E+000	-1.86000E-001	4.39243E-004	7	...........	-327.63
	2908	58.18	-1.88354E-001	2.08558E-008	0.00000E+000	-1.84000E-001	4.48410E-004	7	...........	-327.63
	2909	58.2	-1.86348E-001	2.08600E-008	0.00000E+000	-1.82000E-001	4.38410E-004	7	...........	-327.63
	2910	58.22	-1.84355E-001	2.07933E-008	0.00000E+000	-1.80000E-001	4.17576E-004	7	...........	-327.63
	2911	58.24	-1.82355E-001	2.07975E-008	0.00000E+000	-1.78000E-001	4.66743E-004	7	...........	-327.63
	2912	58.26	-1.80372E-001	2.08600E-008	0.00000E+000	-1.76000E-001	4.48410E-004	7	...........	-327.63
	2913	58.28	-1.78413E-001	2.08850E-008	0.00000E+000	-1.74000E-001	4.52576E-004	7	...........	-327.63
	2914	58.3	-1.76407E-001	2.10975E-008	0.00000E+000	-1.72000E-001	4.19243E-004	7	...........	-327.63
	2915	58.32	-1.74426E-001	2.09767E-008	0.00000E+000	-1.70000E-001	4.45076E-004	7	...........	-327.63
	2916	58.34	-1.72430E-001	2.09058E-008	0.00000E+000	-1.68000E-001	4.33410E-004	7	...........	-327.63
	2917	58.36	-1.70424E-001	2.08058E-008	0.00000E+000	-1.66000E-001	4.40076E-004	7	...........	-327.63
	2918	58.38	-1.68436E-001	2.08767E-008	0.00000E+000	-1.64000E-001	4.46743E-004	7	...........	-327.63
	2919	58.4	-1.66437E-001	2.07642E-008	0.00000E+000	-1.62000E-001	4.55076E-004	7	...........	-327.63
	2920	58.42	-1.64440E-001	2.09058E-008	0.00000E+000	-1.60000E-001	4.37576E-004	7	...........	-327.63
	2921	58.44	-1.62446E-001	2.08725E-008	0.00000E+000	-1.58000E-001	4.45910E-004	7	...........	-327.63
	2922	58.46	-1.60439E-001	2.10100E-008	0.00000E+000	-1.56000E-001	4.50910E-004	7	...........	-327.63
	2923	58.48	-1.58447E-001	2.11225E-008	0.00000E+000	-1.54000E-001	4.38410E-004	7	...........	-327.63
	2924	58.5	-1.56439E-001	2.09475E-008	0.00000E+000	-1.52000E-001	4.35076E-004	7	...........	-327.63
	2925	58.52	-1.54452E-001	2.10642E-008	0.00000E+000	-1.50000E-001	4.34243E-004	7	...........	-327.63
	2926	58.54	-1.52479E-001	2.10017E-008	0.00000E+000	-1.48000E-001	4.35076E-004	7	...........	-327.63
	2927	58.56	-1.50490E-001	2.09558E-008	0.00000E+000	-1.46000E-001	4.39243E-004	7	...........	-327.63
	2928	58.58	-1.48493E-001	2.10017E-008	0.00000E+000	-1.44000E-001	4.29243E-004	7	...........	-327.63
	2929	58.6	-1.46487E-001	2.11683E-008	0.00000E+000	-1.42000E-001	4.44243E-004	7	...........	-327.63
	2930	58.62	-1.44499E-001	2.10892E-008	0.00000E+000	-1.40000E-001	4.21743E-004	7	...........	-327.63
	2931	58.64	-1.42509E-001	2.11267E-008	0.00000E+000	-1.38000E-001	4.50910E-004	7	...........	-327.63
	2932	58.66	-1.40513E-001	2.08517E-008	0.00000E+000	-1.36000E-001	4.51743E-004	7	...........	-327.63
	2933	58.68	-1.38512E-001	2.09183E-008	0.00000E+000	-1.34000E-001	4.55910E-004	7	...........	-327.63
	2934	58.7	-1.36511E-001	2.11267E-008	0.00000E+000	-1.32000E-001	4.50076E-004	7	...........	-327.63
	2935	58.72	-1.34518E-001	2.12892E-008	0.00000E+000	-1.30000E-001	4.41743E-004	7	...........	-327.63
	2936	58.74	-1.32521E-001	2.12142E-008	0.00000E+000	-1.28000E-001	4.50076E-004	7	...........	-327.63
	2937	58.76	-1.30518E-001	2.10558E-008	0.00000E+000	-1.26000E-001	4.28410E-004	7	...........	-327.63
	2938	58.78	-1.28531E-001	2.10725E-008	0.00000E+000	-1.24000E-001	4.31743E-004	7	...........	-327.63
	2939	58.8	-1.26547E-001	2.12350E-008	0.00000E+000	-1.22000E-001	4.45076E-004	7	...........	-327.63
	2940	58.82	-1.24532E-001	2.11558E-008	0.00000E+000	-1.20000E-001	4.45076E-004	7	...........	-327.63
	2941	58.84	-1.22562E-001	2.13100E-008	0.00000E+000	-1.18000E-001	4.43410E-004	7	...........	-327.63
	2942	58.86	-1.20561E-001	2.12850E-008	0.00000E+000	-1.16000E-001	4.55910E-004	7	...........	-327.63
	2943	58.88	-1.18566E-001	2.14559E-008	0.00000E+000	-1.14000E-001	4.30076E-004	7	...........	-327.63
	2944	58.9	-1.16576E-001	2.13183E-008	0.00000E+000	-1.12000E-001	4.34243E-004	7	...........	-327.63
	2945	58.92	-1.14580E-001	2.13308E-008	0.00000E+000	-1.10000E-001	4.25910E-004	7	...........	-327.63
	2946	58.94	-1.12583E-001	2.10850E-008	0.00000E+000	-1.08000E-001	4.55076E-004	7	...........	-327.63
	2947	58.96	-1.10587E-001	2.11100E-008	0.00000E+000	-1.06000E-001	4.47576E-004	7	...........	-327.63
	2948	58.98	-1.08592E-001	2.12725E-008	0.00000E+000	-1.04000E-001	4.55076E-004	7	...........	-327.63
	2949	59	-1.06596E-001	2.12392E-008	0.00000E+000	-1.02000E-001	4.40910E-004	7	...........	-327.63
	2950	59.02	-1.04597E-001	2.11308E-008	0.00000E+000	-1.00000E-001	4.34243E-004	7	...........	-327.63
	2951	59.04	-1.02651E-001	2.10933E-008	0.00000E+000	-9.80000E-002	4.46743E-004	7	...........	-327.63
	2952	59.06	-1.00620E-001	2.09475E-008	0.00000E+000	-9.60000E-002	4.43410E-004	7	...........	-327.63
	2953	59.08	-9.86274E-002	2.10933E-008	0.00000E+000	-9.40000E-002	4.25910E-004	7	...........	-327.63
	2954	59.1	-9.66341E-002	2.09183E-008	0.00000E+000	-9.20000E-002	4.35910E-004	7	...........	-327.63
	2955	59.12	-9.46420E-002	2.10808E-008	0.00000E+000	-9.00000E-002	4.35076E-004	7	...........	-327.63
	2956	59.14	-9.26487E-002	2.09350E-008	0.00000E+000	-8.80000E-002	4.47576E-004	7	...........	-327.63
	2957	59.16	-9.06387E-002	2.10475E-008	0.00000E+000	-8.60000E-002	4.40910E-004	7	...........	-327.63
	2958	59.18	-8.86562E-002	2.10433E-008	0.00000E+000	-8.40000E-002	4.19243E-004	7	...........	-327.63
	2959	59.2	-8.66578E-002	2.10350E-008	0.00000E+000	-8.20000E-002	4.55076E-004	7	...........	-327.63
	2960	59.22	-8.46582E-002	2.10225E-008	0.00000E+000	-8.00000E-002	4.43410E-004	7	...........	-327.63
	2961	59.24	-8.26562E-002	2.10350E-008	0.00000E+000	-7.80000E-002	4.35076E-004	7	...........	-327.63
	2962	59.26	-8.06612E-002	2.09683E-008	0.00000E+000	-7.60000E-002	4.60076E-004	7	...........	-327.63
	2963	59.28	-7.86649E-002	2.11892E-008	0.00000E+000	-7.40000E-002	4.55076E-004	7	...........	-327.63
	2964	59.3	-7.66795E-002	2.11225E-008	0.00000E+000	-7.20000E-002	4.55910E-004	7	...........	-327.63
	2965	59.32	-7.46849E-002	2.11850E-008	0.00000E+000	-7.00000E-002	4.31743E-004	7	...........	-327.63
	2966	59.34	-7.26937E-002	2.10475E-008	0.00000E+000	-6.80000E-002	4.41743E-004	7	...........	-327.63
	2967	59.36	-7.07041E-002	2.11517E-008	0.00000E+000	-6.60000E-002	4.47576E-004	7	...........	-327.63
	2968	59.38	-6.86953E-002	2.12308E-008	0.00000E+000	-6.40000E-002	4.35910E-004	7	...........	-327.63
	2969	59.4	-6.67153E-002	2.12017E-008	0.00000E+000	-6.20000E-002	4.42576E-004	7	...........	-327.63
	2970	59.42	-6.47141E-002	2.11392E-008	0.00000E+000	-6.00000E-002	4.41743E-004	7	...........	-327.63
	2971	59.44	-6.27112E-002	2.14017E-008	0.00000E+000	-5.80000E-002	4.40910E-004	7	...........	-327.63
	2972	59.46	-6.07212E-002	2.12225E-008	0.00000E+000	-5.60000E-002	4.70076E-004	7	...........	-327.63
	2973	59.48	-5.87212E-002	2.13767E-008	0.00000E+000	-5.40000E-002	4.75910E-004	7	...........	-327.63
	2974	59.5	-5.67253E-002	2.11517E-008	0.00000E+000	-5.20000E-002	4.44243E-004	7	...........	-327.63
	2975	59.52	-5.47312E-002	2.12183E-008	0.00000E+000	-5.00000E-002	4.53410E-004	7	...........	-327.63
	2976	59.54	-5.27303E-002	2.14100E-008	0.00000E+000	-4.80000E-002	4.39243E-004	7	...........	-327.63
	2977	59.56	-5.07503E-002	2.13183E-008	0.00000E+000	-4.60000E-002	4.47576E-004	7	...........	-327.63
	2978	59.58	-4.87657E-002	2.14225E-008	0.00000E+000	-4.40000E-002	4.48410E-004	7	...........	-327.63
	2979	59.6	-4.67582E-002	2.13517E-008	0.00000E+000	-4.20000E-002	4.29243E-004	7	...........	-327.63
	2980	59.62	-4.47657E-002	2.14975E-008	0.00000E+000	-4.00000E-002	4.45910E-004	7	...........	-327.63
	2981	59.64	-4.27695E-002	2.14350E-008	0.00000E+000	-3.80000E-002	4.41743E-004	7	...........	-327.63
	2982	59.66	-4.07703E-002	2.15392E-008	0.00000E+000	-3.60000E-002	4.45076E-004	7	...........	-327.63
	2983	59.68	-3.87845E-002	2.14892E-008	0.00000E+000	-3.40000E-002	4.40910E-004	7	...........	-327.63
	2984	59.7	-3.67887E-002	2.14058E-008	0.00000E+000	-3.20000E-002	4.40910E-004	7	...........	-327.63
	2985	59.72	-3.48045E-002	2.15475E-008	0.00000E+000	-3.00000E-002	4.60076E-004	7	...........	-327.63
	2986	59.74	-3.28041E-002	2.15267E-008	0.00000E+000	-2.80000E-002	4.35076E-004	7	...........	-327.63
	2987	59.76	-3.08074E-002	2.15142E-008	0.00000E+000	-2.60000E-002	4.65076E-004	7	...........	-327.63
	2988	59.78	-2.87907E-002	2.15767E-008	0.00000E+000	-2.40000E-002	4.43410E-004	7	...........	-327.63
	2989	59.8	-2.68170E-002	2.15809E-008	0.00000E+000	-2.20000E-002	4.51743E-004	7	...........	-327.63
	2990	59.82	-2.48253E-002	2.16684E-008	0.00000E+000	-2.00000E-002	4.32576E-004	7	...........	-327.63
	2991	59.84	-2.28187E-002	2.15059E-008	0.00000E+000	-1.80000E-002	4.37576E-004	7	...........	-327.63
	2992	59.86	-2.08145E-002	2.15600E-008	0.00000E+000	-1.60000E-002	4.47576E-004	7	...........	-327.63
	2993	59.88	-1.88349E-002	2.15892E-008	0.00000E+000	-1.40000E-002	4.31743E-004	7	...........	-327.63
	2994	59.9	-1.68312E-002	2.15059E-008	0.00000E+000	-1.20000E-002	4.44243E-004	7	...........	-327.63
	2995	59.92	-1.48445E-002	2.15100E-008	0.00000E+000	-1.00000E-002	4.43410E-004	7	...........	-327.63
	2996	59.94	-1.28420E-002	2.14892E-008	0.00000E+000	-8.00000E-003	4.35076E-004	7	...........	-327.63
	2997	59.96	-1.08491E-002	2.15434E-008	0.00000E+000	-6.00000E-003	4.50910E-004	7	...........	-327.63
	2998	59.98	-8.85574E-003	2.14017E-008	0.00000E+000	-4.00000E-003	4.57576E-004	7	...........	-327.63
	2999	60	-6.86074E-003	2.14392E-008	0.00000E+000	-2.00000E-003	4.51743E-004	7	...........	-327.63
	3000	60.02	-4.86449E-003	2.16142E-008	0.00000E+000	0.00000E+000	4.48410E-004	7	...........	-327.63