File: Gamry/CV_smallGrid_newBuffer_2.DTA
EXPLAIN
TAG	CV
TITLE	LABEL	Cyclic Voltammetry	Test &Identifier
DATE	LABEL	5-12-2022	Date
TIME	LABEL	13:06:58	Time
NOTES	NOTES	1	&Notes...

PSTAT	PSTAT	REF3000-20110	Potentiostat
VINIT	POTEN	0.00000E+000	F	Initial &E (V)
VLIMIT1	POTEN	5.00000E-001	F	Scan Limit &1 (V)
VLIMIT2	POTEN	-5.00000E-001	F	Scan Limit &2 (V)
VFINAL	POTEN	0.00000E+000	F	Final &E (V)
SCANRATE	QUANT	9.99998E+001	&Scan Rate (mV/s)
STEPSIZE	QUANT	2.00000E+000	St&ep Size (mV)
CYCLES	IQUANT	3	C&ycles (#)
IMODE	SELECTOR	0	I/E Range &Mode
IRANGE	QUANT	3.00000E-001	&Max Current (mA)
AREA	QUANT	1.00000E+000	Electrode &Area (cm^2)
ELECTRODETYPE	SELECTOR	0	Electrode Type
STRIPPING	TOGGLE	F	Used for Stripping
CONDIT	TWOPARAM	F	1.50000E+001	0.00000E+000	Conditionin&g	Time(s)	E(V)
DELAY	TWOPARAM	F	3.00000E+001	0.00000E+000	Init. De&lay	Time(s)	Stab.(mV/s)
EQDELAY	QUANT	0.00000E+000	Equil. &Time (s)
IRCOMP	SELECTOR	0	IRCom&p
PFCOR	QUANT	5.00000E+001	PF Corr. (ohm)
SAMPLINGMODE	SELECTOR	1	Sampling &Mode
EOC	QUANT	0	Open Circuit (V)
PSTATMODEL	IQUANT	5	Pstat Model
PSTATSECTION	LABEL	REF3000-20110	Pstat Section
PSTATSERIALNO	LABEL	20110	Pstat Serial Number
CTRLMODE	IQUANT	1	Control Mode
ELECTROMETER	IQUANT	0	RE=0 or CS=1
IESTAB	IQUANT	2	I/E Stability
CASPEED	IQUANT	4	Control Amp Speed
CONVENTION	IQUANT	1	Current Convention
ICHRANGE	IQUANT	2	Ich Range
ICHRANGEMODE	TOGGLE	F	Ich Auto Range
ICHOFFSETENABLE	TOGGLE	F	Ich Offset Enable
ICHOFFSET	QUANT	0	Ich Offset (V)
ICHFILTER	IQUANT	2	Ich Filter
VCHRANGE	IQUANT	2	Vch Range
VCHRANGEMODE	TOGGLE	F	Vch Auto Range
VCHOFFSETENABLE	TOGGLE	F	Vch Offset Enable
VCHOFFSET	QUANT	0	Vch Offset (V)
VCHFILTER	IQUANT	2	Vch Filter
ACHRANGE	IQUANT	2	Ach Range
ACHOFFSETENABLE	TOGGLE	F	Ach Offset Enable
ACHOFFSET	QUANT	0	Ach Offset (V)
ACHFILTER	IQUANT	1	Ach Filter
IERANGELOWERLIMIT	IQUANT	2	I/E Range Lower Limit
IERANGEMODE	TOGGLE	T	I/E AutoRange
IERANGE	IQUANT	9	I/E Range
POSFEEDENABLE	TOGGLE	F	Positive Feedback IR Comp
POSFEEDRESISTANCE	QUANT	0	Positive Feedback Resistance (ohm)
ACHSELECT	IQUANT	4	Ach Select
SENSECABLEID	IQUANT	14	Sense Cable ID
PWRCABLEID	IQUANT	7	Power Cable ID
DCCALDATE	LABEL	8/9/2022	DC Calibration Date
ACCALDATE	LABEL	8/9/2022	AC Calibration Date
THERMOSELECT	IQUANT	1	Thermo Select
FRAMEWORKVERSION	LABEL	7.9.0	Framework Version
INSTRUMENTVERSION	LABEL	4.60	Instrument Version
COMPLIANCEVOLTAGE	IQUANT	0	Compliance Voltage
CURVE1	TABLE
	Pt	T	Vf	Im	Vu	Sig	Ach	IERange	Over	Temp
	#	s	V vs. Ref.	A	V	V	V	#	bits	deg C
	0	0.02	2.62098E-003	-7.60690E-008	0.00000E+000	0.00000E+000	8.37576E-004	9	...........	-327.63
	2	0.06	8.04967E-003	-1.09037E-008	0.00000E+000	4.00000E-003	8.30076E-004	7	...........	-327.63
	4	0.1	1.07047E-002	-1.06703E-008	0.00000E+000	8.00000E-003	8.32576E-004	7	...h.......	-327.63
	6	0.14	1.45963E-002	-1.07870E-008	0.00000E+000	1.20000E-002	8.28410E-004	7	...........	-327.63
	8	0.18	1.88218E-002	-1.08579E-008	0.00000E+000	1.60000E-002	8.38410E-004	7	...h.......	-327.63
	10	0.22	2.16234E-002	-1.06912E-008	0.00000E+000	2.00000E-002	8.25910E-004	7	...........	-327.63
	12	0.26	2.67780E-002	-1.11745E-008	0.00000E+000	2.40000E-002	8.35910E-004	7	...h.......	-327.63
	14	0.3	3.10813E-002	-1.12120E-008	0.00000E+000	2.80000E-002	8.30910E-004	7	...........	-327.63
	16	0.34	3.51201E-002	-1.12412E-008	0.00000E+000	3.20000E-002	8.38410E-004	7	...........	-327.63
	18	0.38	3.83122E-002	-1.11370E-008	0.00000E+000	3.60000E-002	8.31743E-004	7	...........	-327.63
	20	0.42	4.31838E-002	-1.16037E-008	0.00000E+000	4.00000E-002	8.34243E-004	7	...........	-327.63
	22	0.46	4.49626E-002	-1.08579E-008	0.00000E+000	4.40000E-002	8.38410E-004	7	...h.......	-327.63
	24	0.5	5.09718E-002	-1.13204E-008	0.00000E+000	4.80000E-002	8.42576E-004	7	...h.......	-327.63
	26	0.54	5.53905E-002	-1.14162E-008	0.00000E+000	5.20000E-002	8.29243E-004	7	...........	-327.63
	28	0.58	5.83872E-002	-1.12912E-008	0.00000E+000	5.60000E-002	8.30910E-004	7	...........	-327.63
	30	0.62	6.16667E-002	-1.10454E-008	0.00000E+000	6.00000E-002	8.34243E-004	7	...........	-327.63
	32	0.66	6.68159E-002	-1.13412E-008	0.00000E+000	6.40000E-002	8.33410E-004	7	...........	-327.63
	34	0.7	6.88459E-002	-1.07995E-008	0.00000E+000	6.80000E-002	8.26743E-004	7	...........	-327.63
	36	0.74	7.44797E-002	-1.11662E-008	0.00000E+000	7.20000E-002	8.50910E-004	7	...h.......	-327.63
	38	0.78	7.74105E-002	-1.11329E-008	0.00000E+000	7.60000E-002	8.31743E-004	7	...........	-327.63
	40	0.82	8.25742E-002	-1.15037E-008	0.00000E+000	8.00000E-002	8.32576E-004	7	...........	-327.63
	42	0.86	8.60251E-002	-1.12870E-008	0.00000E+000	8.40000E-002	8.35076E-004	7	...........	-327.63
	44	0.9	8.89776E-002	-1.10079E-008	0.00000E+000	8.80000E-002	8.45910E-004	7	...h.......	-327.63
	46	0.94	9.51676E-002	-1.15704E-008	0.00000E+000	9.20000E-002	8.30076E-004	7	...........	-327.63
	48	0.98	9.89755E-002	-1.14495E-008	0.00000E+000	9.60000E-002	8.35076E-004	7	...........	-327.63
	50	1.02	1.01661E-001	-1.10037E-008	0.00000E+000	1.00000E-001	8.17576E-004	7	...........	-327.63
	52	1.06	1.06871E-001	-1.13120E-008	0.00000E+000	1.04000E-001	8.43410E-004	7	...........	-327.63
	54	1.1	1.10773E-001	-1.13995E-008	0.00000E+000	1.08000E-001	8.42576E-004	7	...........	-327.63
	56	1.14	1.14585E-001	-1.09662E-008	0.00000E+000	1.12000E-001	8.34243E-004	7	...........	-327.63
	58	1.18	1.18491E-001	-1.10245E-008	0.00000E+000	1.16000E-001	8.44243E-004	7	...........	-327.63
	60	1.22	1.21962E-001	-1.08579E-008	0.00000E+000	1.20000E-001	8.40910E-004	7	...........	-327.63
	62	1.26	1.68832E-001	-1.23246E-008	0.00000E+000	1.24000E-001	8.26743E-004	7	..ch.......	-327.63
	64	1.3	1.78460E-001	-1.30329E-008	0.00000E+000	1.28000E-001	8.21743E-004	7	..ch.......	-327.63
	66	1.34	1.33967E-001	-1.16412E-008	0.00000E+000	1.32000E-001	8.35910E-004	7	...h.......	-327.63
	68	1.38	1.87741E-001	-1.32704E-008	0.00000E+000	1.36000E-001	8.33410E-004	7	..ch.......	-327.63
	70	1.42	1.42900E-001	-1.20787E-008	0.00000E+000	1.40000E-001	8.10076E-004	7	..ch.......	-327.63
	72	1.46	1.44851E-001	-1.13079E-008	0.00000E+000	1.44000E-001	8.30910E-004	7	...........	-327.63
	74	1.5	1.50866E-001	-1.19746E-008	0.00000E+000	1.48000E-001	8.15910E-004	7	...h.......	-327.63
	76	1.54	1.55191E-001	-1.23912E-008	0.00000E+000	1.52000E-001	8.33410E-004	7	...........	-327.63
	78	1.58	1.57004E-001	-1.19246E-008	0.00000E+000	1.56000E-001	8.37576E-004	7	...........	-327.63
	80	1.62	1.61963E-001	-1.25121E-008	0.00000E+000	1.60000E-001	8.13410E-004	7	...........	-327.63
	82	1.66	1.67077E-001	-1.25162E-008	0.00000E+000	1.64000E-001	8.23410E-004	7	...........	-327.63
	84	1.7	1.71459E-001	-1.24871E-008	0.00000E+000	1.68000E-001	8.48410E-004	7	...........	-327.63
	86	1.74	1.75406E-001	-1.23912E-008	0.00000E+000	1.72000E-001	8.42576E-004	7	...........	-327.63
	88	1.78	1.79011E-001	-1.21912E-008	0.00000E+000	1.76000E-001	8.32576E-004	7	...........	-327.63
	90	1.82	1.83591E-001	-1.22496E-008	0.00000E+000	1.80000E-001	8.30076E-004	7	...........	-327.63
	92	1.86	1.85345E-001	-1.18329E-008	0.00000E+000	1.84000E-001	8.26743E-004	7	...........	-327.63
	94	1.9	1.91164E-001	-1.20704E-008	0.00000E+000	1.88000E-001	8.35076E-004	7	...........	-327.63
	96	1.94	1.92783E-001	-1.14120E-008	0.00000E+000	1.92000E-001	8.27576E-004	7	...........	-327.63
	98	1.98	1.98808E-001	-1.18746E-008	0.00000E+000	1.96000E-001	8.36743E-004	7	...........	-327.63
	100	2.02	2.00750E-001	-1.15079E-008	0.00000E+000	2.00000E-001	8.40910E-004	7	...........	-327.63
	102	2.06	2.04287E-001	-1.16495E-008	0.00000E+000	2.04000E-001	8.39243E-004	7	...........	-327.63
	104	2.1	2.08894E-001	-1.19079E-008	0.00000E+000	2.08000E-001	8.31743E-004	7	...........	-327.63
	106	2.14	2.14572E-001	-1.27829E-008	0.00000E+000	2.12000E-001	8.31743E-004	7	...........	-327.63
	108	2.18	2.19345E-001	-1.24204E-008	0.00000E+000	2.16000E-001	8.38410E-004	7	...........	-327.63
	110	2.22	2.25214E-001	-1.26871E-008	0.00000E+000	2.20000E-001	8.38410E-004	7	...........	-327.63
	112	2.26	2.29352E-001	-1.25913E-008	0.00000E+000	2.24000E-001	8.44243E-004	7	...........	-327.63
	114	2.3	2.32028E-001	-1.22746E-008	0.00000E+000	2.28000E-001	8.30076E-004	7	...........	-327.63
	116	2.34	2.37317E-001	-1.26746E-008	0.00000E+000	2.32000E-001	8.34243E-004	7	...........	-327.63
	118	2.38	2.41187E-001	-1.21787E-008	0.00000E+000	2.36000E-001	8.35910E-004	7	...........	-327.63
	120	2.42	2.44276E-001	-1.23412E-008	0.00000E+000	2.40000E-001	8.35076E-004	7	...........	-327.63
	122	2.46	2.48299E-001	-1.21496E-008	0.00000E+000	2.44000E-001	8.33410E-004	7	...........	-327.63
	124	2.5	2.49013E-001	-1.18996E-008	0.00000E+000	2.48000E-001	8.43410E-004	7	...........	-327.63
	126	2.54	2.52767E-001	-1.18204E-008	0.00000E+000	2.52000E-001	8.45076E-004	7	...........	-327.63
	128	2.58	2.60135E-001	-1.24371E-008	0.00000E+000	2.56000E-001	8.31743E-004	7	...........	-327.63
	130	2.62	2.61113E-001	-1.20454E-008	0.00000E+000	2.60000E-001	8.30910E-004	7	...........	-327.63
	132	2.66	2.67715E-001	-1.29454E-008	0.00000E+000	2.64000E-001	8.30076E-004	7	...........	-327.63
	134	2.7	2.69352E-001	-1.24329E-008	0.00000E+000	2.68000E-001	8.31743E-004	7	...........	-327.63
	136	2.74	2.76794E-001	-1.25287E-008	0.00000E+000	2.72000E-001	8.34243E-004	7	...........	-327.63
	138	2.78	2.80632E-001	-1.22996E-008	0.00000E+000	2.76000E-001	8.34243E-004	7	...........	-327.63
	140	2.82	2.83150E-001	-1.20537E-008	0.00000E+000	2.80000E-001	8.40076E-004	7	...h.......	-327.63
	142	2.86	2.88557E-001	-1.23246E-008	0.00000E+000	2.84000E-001	8.31743E-004	7	...........	-327.63
	144	2.9	2.93278E-001	-1.26121E-008	0.00000E+000	2.88000E-001	8.33410E-004	7	...........	-327.63
	146	2.94	2.93700E-001	-1.20954E-008	0.00000E+000	2.92000E-001	8.39243E-004	7	...........	-327.63
	148	2.98	3.00114E-001	-1.26371E-008	0.00000E+000	2.96000E-001	8.31743E-004	7	...........	-327.63
	150	3.02	3.00346E-001	-1.18954E-008	0.00000E+000	3.00000E-001	8.31743E-004	7	..ch.......	-327.63
	152	3.06	3.07713E-001	-1.25371E-008	0.00000E+000	3.04000E-001	8.37576E-004	7	...........	-327.63
	154	3.1	3.08300E-001	-1.16037E-008	0.00000E+000	3.08000E-001	8.25076E-004	7	..ch.......	-327.63
	156	3.14	3.13393E-001	-1.18746E-008	0.00000E+000	3.12000E-001	8.30910E-004	7	..ch.......	-327.63
	158	3.18	3.20445E-001	-1.25412E-008	0.00000E+000	3.16000E-001	8.40910E-004	7	...........	-327.63
	160	3.22	3.24624E-001	-1.21662E-008	0.00000E+000	3.20000E-001	8.33410E-004	7	...h.......	-327.63
	162	3.26	3.28326E-001	-1.20037E-008	0.00000E+000	3.24000E-001	8.38410E-004	7	...........	-327.63
	164	3.3	3.33190E-001	-1.21746E-008	0.00000E+000	3.28000E-001	8.23410E-004	7	...........	-327.63
	166	3.34	3.37448E-001	-1.21204E-008	0.00000E+000	3.32000E-001	8.23410E-004	7	...........	-327.63
	168	3.38	3.39824E-001	-1.18662E-008	0.00000E+000	3.36000E-001	8.32576E-004	7	...........	-327.63
	170	3.42	3.44450E-001	-1.20287E-008	0.00000E+000	3.40000E-001	8.34243E-004	7	...........	-327.63
	172	3.46	3.48406E-001	-1.21746E-008	0.00000E+000	3.44000E-001	8.39243E-004	7	...........	-327.63
	174	3.5	3.51787E-001	-1.21204E-008	0.00000E+000	3.48000E-001	8.30076E-004	7	...........	-327.63
	176	3.54	3.55826E-001	-1.18204E-008	0.00000E+000	3.52000E-001	8.40076E-004	7	...........	-327.63
	178	3.58	3.60335E-001	-1.20912E-008	0.00000E+000	3.56000E-001	8.35076E-004	7	...........	-327.63
	180	3.62	3.62897E-001	-1.14537E-008	0.00000E+000	3.60000E-001	8.35076E-004	7	...........	-327.63
	182	3.66	3.67131E-001	-1.14079E-008	0.00000E+000	3.64000E-001	8.45076E-004	7	...........	-327.63
	184	3.7	3.70886E-001	-1.11370E-008	0.00000E+000	3.68000E-001	8.30910E-004	7	...........	-327.63
	186	3.74	3.74064E-001	-1.09662E-008	0.00000E+000	3.72000E-001	8.30076E-004	7	...h.......	-327.63
	188	3.78	3.77288E-001	-1.12537E-008	0.00000E+000	3.76000E-001	8.25910E-004	7	...........	-327.63
	190	3.82	3.84736E-001	-1.19496E-008	0.00000E+000	3.80000E-001	8.23410E-004	7	...........	-327.63
	192	3.86	3.84689E-001	-1.08537E-008	0.00000E+000	3.84000E-001	8.33410E-004	7	...........	-327.63
	194	3.9	3.90428E-001	-1.10745E-008	0.00000E+000	3.88000E-001	8.34243E-004	7	...........	-327.63
	196	3.94	3.93238E-001	-1.07787E-008	0.00000E+000	3.92000E-001	8.40076E-004	7	...........	-327.63
	198	3.98	3.97566E-001	-1.08870E-008	0.00000E+000	3.96000E-001	8.35076E-004	7	...........	-327.63
	200	4.02	4.00890E-001	-1.09162E-008	0.00000E+000	4.00000E-001	8.35910E-004	7	...........	-327.63
	202	4.06	4.05148E-001	-1.09079E-008	0.00000E+000	4.04000E-001	8.38410E-004	7	...........	-327.63
	204	4.1	4.08997E-001	-1.08912E-008	0.00000E+000	4.08000E-001	8.33410E-004	7	...........	-327.63
	206	4.14	4.13779E-001	-1.07912E-008	0.00000E+000	4.12000E-001	8.27576E-004	7	...........	-327.63
	208	4.18	4.19085E-001	-1.06495E-008	0.00000E+000	4.16000E-001	8.40910E-004	7	...........	-327.63
	210	4.22	4.23143E-001	-1.05828E-008	0.00000E+000	4.20000E-001	8.37576E-004	7	...........	-327.63
	212	4.26	4.27318E-001	-1.03995E-008	0.00000E+000	4.24000E-001	8.35076E-004	7	...........	-327.63
	214	4.3	4.30978E-001	-1.03078E-008	0.00000E+000	4.28000E-001	8.16743E-004	7	...........	-327.63
	216	4.34	4.34746E-001	-1.02828E-008	0.00000E+000	4.32000E-001	8.37576E-004	7	...........	-327.63
	218	4.38	4.38239E-001	-1.03203E-008	0.00000E+000	4.36000E-001	8.25910E-004	7	...........	-327.63
	220	4.42	4.41707E-001	-1.02745E-008	0.00000E+000	4.40000E-001	8.28410E-004	7	...........	-327.63
	222	4.46	4.45462E-001	-1.00662E-008	0.00000E+000	4.44000E-001	8.37576E-004	7	...........	-327.63
	224	4.5	4.49016E-001	-9.99532E-009	0.00000E+000	4.48000E-001	8.26743E-004	7	...........	-327.63
	226	4.54	4.55395E-001	-9.96199E-009	0.00000E+000	4.52000E-001	8.43410E-004	7	...........	-327.63
	228	4.58	4.57377E-001	-9.86198E-009	0.00000E+000	4.56000E-001	8.40076E-004	7	...........	-327.63
	230	4.62	4.63733E-001	-1.02037E-008	0.00000E+000	4.60000E-001	8.41743E-004	7	...........	-327.63
	232	4.66	4.67322E-001	-9.72031E-009	0.00000E+000	4.64000E-001	8.26743E-004	7	...........	-327.63
	234	4.7	4.70733E-001	-9.53697E-009	0.00000E+000	4.68000E-001	8.31743E-004	7	...........	-327.63
	236	4.74	4.74856E-001	-9.58697E-009	0.00000E+000	4.72000E-001	8.40076E-004	7	...........	-327.63
	238	4.78	4.80242E-001	-9.61614E-009	0.00000E+000	4.76000E-001	8.43410E-004	7	...........	-327.63
	240	4.82	4.82160E-001	-9.25779E-009	0.00000E+000	4.80000E-001	8.39243E-004	7	...........	-327.63
	242	4.86	4.86898E-001	-9.16196E-009	0.00000E+000	4.84000E-001	8.24243E-004	7	...........	-327.63
	244	4.9	4.91616E-001	-9.21196E-009	0.00000E+000	4.88000E-001	8.39243E-004	7	...........	-327.63
	246	4.94	4.95241E-001	-9.10362E-009	0.00000E+000	4.92000E-001	8.31743E-004	7	...........	-327.63
	248	4.98	4.99937E-001	-9.35363E-009	0.00000E+000	4.96000E-001	8.31743E-004	7	...........	-327.63
	250	5.02	5.01311E-001	-8.61610E-009	0.00000E+000	5.00000E-001	8.30076E-004	7	...........	-327.63
	252	5.06	4.95945E-001	-7.96191E-009	0.00000E+000	4.96000E-001	8.20910E-004	7	...........	-327.63
	254	5.1	4.94625E-001	-8.60777E-009	0.00000E+000	4.92000E-001	8.35076E-004	7	...........	-327.63
	256	5.14	4.89807E-001	-8.60777E-009	0.00000E+000	4.88000E-001	8.25076E-004	7	...........	-327.63
	258	5.18	4.87141E-001	-8.54527E-009	0.00000E+000	4.84000E-001	8.28410E-004	7	...........	-327.63
	260	5.22	4.83024E-001	-8.09525E-009	0.00000E+000	4.80000E-001	8.37576E-004	7	...........	-327.63
	262	5.26	4.78924E-001	-7.84941E-009	0.00000E+000	4.76000E-001	8.40910E-004	7	...........	-327.63
	264	5.3	4.74908E-001	-7.80357E-009	0.00000E+000	4.72000E-001	8.45076E-004	7	...........	-327.63
	266	5.34	4.71182E-001	-7.78691E-009	0.00000E+000	4.68000E-001	8.35910E-004	7	...........	-327.63
	268	5.38	4.66897E-001	-7.60773E-009	0.00000E+000	4.64000E-001	8.28410E-004	7	...........	-327.63
	270	5.42	4.62772E-001	-7.30772E-009	0.00000E+000	4.60000E-001	8.36743E-004	7	...........	-327.63
	272	5.46	4.58457E-001	-7.11188E-009	0.00000E+000	4.56000E-001	8.23410E-004	7	...........	-327.63
	274	5.5	4.54176E-001	-7.23688E-009	0.00000E+000	4.52000E-001	8.36743E-004	7	...........	-327.63
	276	5.54	4.50037E-001	-6.91604E-009	0.00000E+000	4.48000E-001	8.35076E-004	7	..ch.......	-327.63
	278	5.58	4.45793E-001	-6.75353E-009	0.00000E+000	4.44000E-001	8.25910E-004	7	...........	-327.63
	280	5.62	4.42311E-001	-6.84937E-009	0.00000E+000	4.40000E-001	8.32576E-004	7	...........	-327.63
	282	5.66	4.38844E-001	-6.73687E-009	0.00000E+000	4.36000E-001	8.29243E-004	7	...........	-327.63
	284	5.7	4.34984E-001	-6.56186E-009	0.00000E+000	4.32000E-001	8.42576E-004	7	...........	-327.63
	286	5.74	4.30018E-001	-6.16601E-009	0.00000E+000	4.28000E-001	8.34243E-004	7	...........	-327.63
	288	5.78	4.26905E-001	-6.23268E-009	0.00000E+000	4.24000E-001	8.40076E-004	7	...........	-327.63
	290	5.82	4.22943E-001	-6.26602E-009	0.00000E+000	4.20000E-001	8.27576E-004	7	...........	-327.63
	292	5.86	4.18839E-001	-5.84100E-009	0.00000E+000	4.16000E-001	8.39243E-004	7	...........	-327.63
	294	5.9	4.14907E-001	-5.79100E-009	0.00000E+000	4.12000E-001	8.30910E-004	7	...........	-327.63
	296	5.94	4.10670E-001	-5.44515E-009	0.00000E+000	4.08000E-001	8.39243E-004	7	...........	-327.63
	298	5.98	4.08088E-001	-5.68266E-009	0.00000E+000	4.04000E-001	8.37576E-004	7	...........	-327.63
	300	6.02	4.03142E-001	-5.33681E-009	0.00000E+000	4.00000E-001	8.45910E-004	7	...........	-327.63
	302	6.06	3.98730E-001	-5.18264E-009	0.00000E+000	3.96000E-001	8.45910E-004	7	...........	-327.63
	304	6.1	3.94863E-001	-5.06597E-009	0.00000E+000	3.92000E-001	8.32576E-004	7	...........	-327.63
	306	6.14	3.90882E-001	-4.98263E-009	0.00000E+000	3.88000E-001	8.28410E-004	7	...........	-327.63
	308	6.18	3.87643E-001	-4.97430E-009	0.00000E+000	3.84000E-001	8.36743E-004	7	...........	-327.63
	310	6.22	3.82866E-001	-4.90763E-009	0.00000E+000	3.80000E-001	8.30910E-004	7	...........	-327.63
	312	6.26	3.78801E-001	-4.84096E-009	0.00000E+000	3.76000E-001	8.36743E-004	7	...........	-327.63
	314	6.3	3.76182E-001	-5.05764E-009	0.00000E+000	3.72000E-001	8.26743E-004	7	...........	-327.63
	316	6.34	3.70747E-001	-4.42011E-009	0.00000E+000	3.68000E-001	8.34243E-004	7	...........	-327.63
	318	6.38	3.66815E-001	-4.17427E-009	0.00000E+000	3.64000E-001	8.18410E-004	7	...........	-327.63
	320	6.42	3.62789E-001	-4.19927E-009	0.00000E+000	3.60000E-001	8.26743E-004	7	...........	-327.63
	322	6.46	3.59482E-001	-4.14927E-009	0.00000E+000	3.56000E-001	8.30076E-004	7	...........	-327.63
	324	6.5	3.54496E-001	-3.86176E-009	0.00000E+000	3.52000E-001	8.35910E-004	7	...........	-327.63
	326	6.54	3.50671E-001	-3.61175E-009	0.00000E+000	3.48000E-001	8.22576E-004	7	...........	-327.63
	328	6.58	3.47638E-001	-3.79509E-009	0.00000E+000	3.44000E-001	8.31743E-004	7	...........	-327.63
	330	6.62	3.42660E-001	-3.23257E-009	0.00000E+000	3.40000E-001	8.24243E-004	7	...........	-327.63
	332	6.66	3.38639E-001	-3.14923E-009	0.00000E+000	3.36000E-001	8.25076E-004	7	...........	-327.63
	334	6.7	3.34724E-001	-3.04506E-009	0.00000E+000	3.32000E-001	8.42576E-004	7	...........	-327.63
	336	6.74	3.30842E-001	-2.81589E-009	0.00000E+000	3.28000E-001	8.35076E-004	7	...........	-327.63
	338	6.78	3.26888E-001	-2.61588E-009	0.00000E+000	3.24000E-001	8.27576E-004	7	...........	-327.63
	340	6.82	3.22267E-001	-2.25337E-009	0.00000E+000	3.20000E-001	8.30076E-004	7	...........	-327.63
	342	6.86	3.17905E-001	-2.15753E-009	0.00000E+000	3.16000E-001	8.45076E-004	7	...........	-327.63
	344	6.9	3.14760E-001	-2.25753E-009	0.00000E+000	3.12000E-001	8.36743E-004	7	...........	-327.63
	346	6.94	3.10633E-001	-2.11169E-009	0.00000E+000	3.08000E-001	8.21743E-004	7	...........	-327.63
	348	6.98	3.05790E-001	-1.63251E-009	0.00000E+000	3.04000E-001	8.30910E-004	7	...........	-327.63
	350	7.02	3.02234E-001	-1.57417E-009	0.00000E+000	3.00000E-001	8.39243E-004	7	...........	-327.63
	352	7.06	2.99400E-001	-2.05336E-009	0.00000E+000	2.96000E-001	8.35076E-004	7	...........	-327.63
	354	7.1	2.94256E-001	-1.45334E-009	0.00000E+000	2.92000E-001	8.22576E-004	7	...........	-327.63
	356	7.14	2.89703E-001	-1.23666E-009	0.00000E+000	2.88000E-001	8.24243E-004	7	...........	-327.63
	358	7.18	2.85888E-001	-1.17833E-009	0.00000E+000	2.84000E-001	8.37576E-004	7	...........	-327.63
	360	7.22	2.82502E-001	-9.15816E-010	0.00000E+000	2.80000E-001	8.25910E-004	7	...........	-327.63
	362	7.26	2.78238E-001	-7.82477E-010	0.00000E+000	2.76000E-001	8.16743E-004	7	...........	-327.63
	364	7.3	2.73548E-001	-3.86629E-010	0.00000E+000	2.72000E-001	8.41743E-004	7	...........	-327.63
	366	7.34	2.69961E-001	-3.11627E-010	0.00000E+000	2.68000E-001	8.38410E-004	7	...........	-327.63
	368	7.38	2.66241E-001	-1.28286E-010	0.00000E+000	2.64000E-001	8.20076E-004	7	...........	-327.63
	370	7.42	2.61841E-001	6.33874E-011	0.00000E+000	2.60000E-001	8.29243E-004	7	...........	-327.63
	372	7.46	2.58437E-001	6.33874E-011	0.00000E+000	2.56000E-001	8.35076E-004	7	...........	-327.63
	374	7.5	2.54898E-001	3.42196E-011	0.00000E+000	2.52000E-001	8.25910E-004	7	...........	-327.63
	376	7.54	2.49987E-001	2.05059E-010	0.00000E+000	2.48000E-001	8.35076E-004	7	...........	-327.63
	378	7.58	2.45827E-001	6.75910E-010	0.00000E+000	2.44000E-001	8.27576E-004	7	...........	-327.63
	380	7.62	2.41980E-001	7.63413E-010	0.00000E+000	2.40000E-001	8.20076E-004	7	...........	-327.63
	382	7.66	2.38032E-001	1.02176E-009	0.00000E+000	2.36000E-001	8.23410E-004	7	...........	-327.63
	384	7.7	2.34375E-001	1.07593E-009	0.00000E+000	2.32000E-001	8.25910E-004	7	...........	-327.63
	386	7.74	2.30348E-001	1.35510E-009	0.00000E+000	2.28000E-001	8.30076E-004	7	...........	-327.63
	388	7.78	2.26333E-001	1.47594E-009	0.00000E+000	2.24000E-001	8.37576E-004	7	...........	-327.63
	390	7.82	2.21610E-001	1.92596E-009	0.00000E+000	2.20000E-001	8.34243E-004	7	...........	-327.63
	392	7.86	2.18299E-001	2.08430E-009	0.00000E+000	2.16000E-001	8.25910E-004	7	...........	-327.63
	394	7.9	2.14275E-001	2.38431E-009	0.00000E+000	2.12000E-001	8.39243E-004	7	...........	-327.63
	396	7.94	2.09912E-001	2.71349E-009	0.00000E+000	2.08000E-001	8.33410E-004	7	...........	-327.63
	398	7.98	2.05848E-001	2.79266E-009	0.00000E+000	2.04000E-001	8.11743E-004	7	...........	-327.63
	400	8.02	2.02108E-001	2.91766E-009	0.00000E+000	2.00000E-001	8.29243E-004	7	...........	-327.63
	402	8.06	1.97701E-001	3.28851E-009	0.00000E+000	1.96000E-001	8.38410E-004	7	...........	-327.63
	404	8.1	1.93767E-001	3.42601E-009	0.00000E+000	1.92000E-001	8.47576E-004	7	...........	-327.63
	406	8.14	1.89981E-001	3.51768E-009	0.00000E+000	1.88000E-001	8.50076E-004	7	...........	-327.63
	408	8.18	1.85817E-001	3.85520E-009	0.00000E+000	1.84000E-001	8.31743E-004	7	...........	-327.63
	410	8.22	1.81460E-001	4.01770E-009	0.00000E+000	1.80000E-001	8.35910E-004	7	...........	-327.63
	412	8.26	1.77226E-001	4.43438E-009	0.00000E+000	1.76000E-001	8.37576E-004	7	...........	-327.63
	414	8.3	1.73642E-001	4.49272E-009	0.00000E+000	1.72000E-001	8.19243E-004	7	...........	-327.63
	416	8.34	1.70458E-001	4.33855E-009	0.00000E+000	1.68000E-001	8.38410E-004	7	...........	-327.63
	418	8.38	1.65983E-001	4.61772E-009	0.00000E+000	1.64000E-001	8.39243E-004	7	...........	-327.63
	420	8.42	1.61926E-001	5.08857E-009	0.00000E+000	1.60000E-001	8.39243E-004	7	...........	-327.63
	422	8.46	1.57594E-001	5.31358E-009	0.00000E+000	1.56000E-001	8.27576E-004	7	...........	-327.63
	424	8.5	1.53135E-001	5.69276E-009	0.00000E+000	1.52000E-001	8.25076E-004	7	...........	-327.63
	426	8.54	1.49644E-001	6.01361E-009	0.00000E+000	1.48000E-001	8.37576E-004	7	...........	-327.63
	428	8.58	1.45921E-001	5.95527E-009	0.00000E+000	1.44000E-001	8.40076E-004	7	...........	-327.63
	430	8.62	1.42011E-001	6.20528E-009	0.00000E+000	1.40000E-001	8.30076E-004	7	...........	-327.63
	432	8.66	1.37544E-001	6.46779E-009	0.00000E+000	1.36000E-001	8.30910E-004	7	...........	-327.63
	434	8.7	1.33904E-001	6.72614E-009	0.00000E+000	1.32000E-001	8.28410E-004	7	...........	-327.63
	436	8.74	1.29955E-001	6.71780E-009	0.00000E+000	1.28000E-001	8.27576E-004	7	...........	-327.63
	438	8.78	1.25938E-001	7.15532E-009	0.00000E+000	1.24000E-001	8.40076E-004	7	...........	-327.63
	440	8.82	1.21754E-001	7.31782E-009	0.00000E+000	1.20000E-001	8.45076E-004	7	...........	-327.63
	442	8.86	1.17905E-001	7.45533E-009	0.00000E+000	1.16000E-001	8.41743E-004	7	...........	-327.63
	444	8.9	1.13888E-001	7.68450E-009	0.00000E+000	1.12000E-001	8.43410E-004	7	...........	-327.63
	446	8.94	1.09872E-001	7.84284E-009	0.00000E+000	1.08000E-001	8.43410E-004	7	...........	-327.63
	448	8.98	1.04673E-001	8.50954E-009	0.00000E+000	1.04000E-001	8.30910E-004	7	...........	-327.63
	450	9.02	1.00826E-001	8.68037E-009	0.00000E+000	1.00000E-001	8.29243E-004	7	...........	-327.63
	452	9.06	9.67938E-002	8.88872E-009	0.00000E+000	9.60000E-002	8.33410E-004	7	...........	-327.63
	454	9.1	9.32863E-002	8.82205E-009	0.00000E+000	9.20000E-002	8.31743E-004	7	...........	-327.63
	456	9.14	8.98109E-002	9.05122E-009	0.00000E+000	8.80000E-002	8.31743E-004	7	...........	-327.63
	458	9.18	8.53355E-002	9.22206E-009	0.00000E+000	8.40000E-002	8.33410E-004	7	...........	-327.63
	460	9.22	8.13097E-002	9.60124E-009	0.00000E+000	8.00000E-002	8.35910E-004	7	...........	-327.63
	462	9.26	7.73655E-002	9.66791E-009	0.00000E+000	7.60000E-002	8.30910E-004	7	...........	-327.63
	464	9.3	7.31463E-002	9.85125E-009	0.00000E+000	7.20000E-002	8.34243E-004	7	...........	-327.63
	466	9.34	6.84730E-002	1.00471E-008	0.00000E+000	6.80000E-002	8.29243E-004	7	...........	-327.63
	468	9.38	6.51563E-002	9.96792E-009	0.00000E+000	6.40000E-002	8.30910E-004	7	...........	-327.63
	470	9.42	6.17234E-002	1.01804E-008	0.00000E+000	6.00000E-002	8.38410E-004	7	...........	-327.63
	472	9.46	5.73909E-002	1.04471E-008	0.00000E+000	5.60000E-002	8.28410E-004	7	...........	-327.63
	474	9.5	5.36259E-002	1.04763E-008	0.00000E+000	5.20000E-002	8.35910E-004	7	...........	-327.63
	476	9.54	4.93593E-002	1.05846E-008	0.00000E+000	4.80000E-002	8.31743E-004	7	...........	-327.63
	478	9.58	4.39580E-002	1.11513E-008	0.00000E+000	4.40000E-002	8.35910E-004	7	...........	-327.63
	480	9.62	4.16572E-002	1.08596E-008	0.00000E+000	4.00000E-002	8.31743E-004	7	...........	-327.63
	482	9.66	3.76688E-002	1.11555E-008	0.00000E+000	3.60000E-002	8.43410E-004	7	...........	-327.63
	484	9.7	3.31801E-002	1.12971E-008	0.00000E+000	3.20000E-002	8.43410E-004	7	...........	-327.63
	486	9.74	2.88276E-002	1.15596E-008	0.00000E+000	2.80000E-002	8.34243E-004	7	...........	-327.63
	488	9.78	2.46968E-002	1.18555E-008	0.00000E+000	2.40000E-002	8.38410E-004	7	...........	-327.63
	490	9.82	2.01918E-002	1.22347E-008	0.00000E+000	2.00000E-002	8.30910E-004	7	...........	-327.63
	492	9.86	1.65113E-002	1.21513E-008	0.00000E+000	1.60000E-002	8.39243E-004	7	...........	-327.63
	494	9.9	1.31705E-002	1.23180E-008	0.00000E+000	1.20000E-002	8.44243E-004	7	...........	-327.63
	496	9.94	9.49467E-003	1.22430E-008	0.00000E+000	8.00000E-003	8.33410E-004	7	...........	-327.63
	498	9.98	5.40676E-003	1.25639E-008	0.00000E+000	4.00000E-003	8.40910E-004	7	...........	-327.63
	500	10.02	9.87590E-004	1.28972E-008	0.00000E+000	0.00000E+000	8.37576E-004	7	...........	-327.63
	502	10.06	-3.97033E-003	1.33805E-008	0.00000E+000	-4.00000E-003	8.36743E-004	7	...........	-327.63
	504	10.1	-6.59783E-003	1.31847E-008	0.00000E+000	-8.00000E-003	8.30076E-004	7	...........	-327.63
	506	10.14	-1.06966E-002	1.31889E-008	0.00000E+000	-1.20000E-002	8.40076E-004	7	...........	-327.63
	508	10.18	-1.45974E-002	1.35306E-008	0.00000E+000	-1.60000E-002	8.30910E-004	7	...........	-327.63
	510	10.22	-1.86812E-002	1.37139E-008	0.00000E+000	-2.00000E-002	8.35076E-004	7	...........	-327.63
	512	10.26	-2.26253E-002	1.41389E-008	0.00000E+000	-2.40000E-002	8.39243E-004	7	...........	-327.63
	514	10.3	-2.68182E-002	1.43223E-008	0.00000E+000	-2.80000E-002	8.25910E-004	7	...........	-327.63
	516	10.34	-3.06499E-002	1.44931E-008	0.00000E+000	-3.20000E-002	8.50076E-004	7	...........	-327.63
	518	10.38	-3.47432E-002	1.46931E-008	0.00000E+000	-3.60000E-002	8.26743E-004	7	...........	-327.63
	520	10.42	-3.88370E-002	1.49181E-008	0.00000E+000	-4.00000E-002	8.29243E-004	7	...........	-327.63
	522	10.46	-4.26866E-002	1.50514E-008	0.00000E+000	-4.40000E-002	8.35076E-004	7	...........	-327.63
	524	10.5	-4.67245E-002	1.52390E-008	0.00000E+000	-4.80000E-002	8.34243E-004	7	...........	-327.63
	526	10.54	-5.13582E-002	1.54681E-008	0.00000E+000	-5.20000E-002	8.23410E-004	7	...........	-327.63
	528	10.58	-5.47970E-002	1.56431E-008	0.00000E+000	-5.60000E-002	8.32576E-004	7	...........	-327.63
	530	10.62	-5.87541E-002	1.55390E-008	0.00000E+000	-6.00000E-002	8.33410E-004	7	...........	-327.63
	532	10.66	-6.27824E-002	1.57973E-008	0.00000E+000	-6.40000E-002	8.39243E-004	7	...........	-327.63
	534	10.7	-6.67587E-002	1.60015E-008	0.00000E+000	-6.80000E-002	8.48410E-004	7	...........	-327.63
	536	10.74	-7.12207E-002	1.62723E-008	0.00000E+000	-7.20000E-002	8.44243E-004	7	...........	-327.63
	538	10.78	-7.57249E-002	1.63390E-008	0.00000E+000	-7.60000E-002	8.33410E-004	7	...........	-327.63
	540	10.82	-8.02803E-002	1.67682E-008	0.00000E+000	-8.00000E-002	8.41743E-004	7	...........	-327.63
	542	10.86	-8.28145E-002	1.64932E-008	0.00000E+000	-8.40000E-002	8.46743E-004	7	...........	-327.63
	544	10.9	-8.69653E-002	1.68723E-008	0.00000E+000	-8.80000E-002	8.32576E-004	7	...........	-327.63
	546	10.94	-9.11962E-002	1.68265E-008	0.00000E+000	-9.20000E-002	8.26743E-004	7	...........	-327.63
	548	10.98	-9.52953E-002	1.69890E-008	0.00000E+000	-9.60000E-002	8.35076E-004	7	...........	-327.63
	550	11.02	-9.92057E-002	1.71182E-008	0.00000E+000	-1.00000E-001	8.35910E-004	7	...........	-327.63
	552	11.06	-1.03119E-001	1.72557E-008	0.00000E+000	-1.04000E-001	8.35076E-004	7	...........	-327.63
	554	11.1	-1.07398E-001	1.76390E-008	0.00000E+000	-1.08000E-001	8.32576E-004	7	...........	-327.63
	556	11.14	-1.11042E-001	1.74599E-008	0.00000E+000	-1.12000E-001	8.32576E-004	7	...........	-327.63
	558	11.18	-1.15135E-001	1.76682E-008	0.00000E+000	-1.16000E-001	8.35910E-004	7	...........	-327.63
	560	11.22	-1.19093E-001	1.78932E-008	0.00000E+000	-1.20000E-001	8.32576E-004	7	...........	-327.63
	562	11.26	-1.22907E-001	1.79474E-008	0.00000E+000	-1.24000E-001	8.20910E-004	7	...........	-327.63
	564	11.3	-1.26952E-001	1.80891E-008	0.00000E+000	-1.28000E-001	8.19243E-004	7	...........	-327.63
	566	11.34	-1.30918E-001	1.85849E-008	0.00000E+000	-1.32000E-001	8.41743E-004	7	...........	-327.63
	568	11.38	-1.34923E-001	1.85557E-008	0.00000E+000	-1.36000E-001	8.20910E-004	7	...........	-327.63
	570	11.42	-1.39209E-001	1.86974E-008	0.00000E+000	-1.40000E-001	8.38410E-004	7	...........	-327.63
	572	11.46	-1.42952E-001	1.88099E-008	0.00000E+000	-1.44000E-001	8.22576E-004	7	...........	-327.63
	574	11.5	-1.46928E-001	1.89474E-008	0.00000E+000	-1.48000E-001	8.38410E-004	7	...........	-327.63
	576	11.54	-1.50957E-001	1.89391E-008	0.00000E+000	-1.52000E-001	8.35910E-004	7	...........	-327.63
	578	11.58	-1.55046E-001	1.91766E-008	0.00000E+000	-1.56000E-001	8.30910E-004	7	...........	-327.63
	580	11.62	-1.58960E-001	1.92516E-008	0.00000E+000	-1.60000E-001	8.38410E-004	7	...........	-327.63
	582	11.66	-1.63025E-001	1.92516E-008	0.00000E+000	-1.64000E-001	8.39243E-004	7	...........	-327.63
	584	11.7	-1.66967E-001	1.92099E-008	0.00000E+000	-1.68000E-001	8.35076E-004	7	...........	-327.63
	586	11.74	-1.70967E-001	1.93016E-008	0.00000E+000	-1.72000E-001	8.36743E-004	7	...........	-327.63
	588	11.78	-1.74979E-001	1.93141E-008	0.00000E+000	-1.76000E-001	8.31743E-004	7	...........	-327.63
	590	11.82	-1.78997E-001	1.94516E-008	0.00000E+000	-1.80000E-001	8.30076E-004	7	...........	-327.63
	592	11.86	-1.82990E-001	1.95391E-008	0.00000E+000	-1.84000E-001	8.42576E-004	7	...........	-327.63
	594	11.9	-1.87077E-001	1.93724E-008	0.00000E+000	-1.88000E-001	8.31743E-004	7	...........	-327.63
	596	11.94	-1.91025E-001	1.94849E-008	0.00000E+000	-1.92000E-001	8.22576E-004	7	...........	-327.63
	598	11.98	-1.95613E-001	1.98100E-008	0.00000E+000	-1.96000E-001	8.41743E-004	7	...........	-327.63
	600	12.02	-1.99063E-001	1.96683E-008	0.00000E+000	-2.00000E-001	8.33410E-004	7	...........	-327.63
	602	12.06	-2.03089E-001	2.00016E-008	0.00000E+000	-2.04000E-001	8.42576E-004	7	...........	-327.63
	604	12.1	-2.08098E-001	2.00641E-008	0.00000E+000	-2.08000E-001	8.35076E-004	7	...........	-327.63
	606	12.14	-2.11489E-001	2.01475E-008	0.00000E+000	-2.12000E-001	8.38410E-004	7	...........	-327.63
	608	12.18	-2.15714E-001	2.02100E-008	0.00000E+000	-2.16000E-001	8.24243E-004	7	...........	-327.63
	610	12.22	-2.19637E-001	2.04933E-008	0.00000E+000	-2.20000E-001	8.29243E-004	7	...........	-327.63
	612	12.26	-2.23087E-001	2.03516E-008	0.00000E+000	-2.24000E-001	8.25910E-004	7	...........	-327.63
	614	12.3	-2.27089E-001	2.03808E-008	0.00000E+000	-2.28000E-001	8.41743E-004	7	...........	-327.63
	616	12.34	-2.31338E-001	2.04975E-008	0.00000E+000	-2.32000E-001	8.46743E-004	7	...........	-327.63
	618	12.38	-2.35122E-001	2.06392E-008	0.00000E+000	-2.36000E-001	8.35076E-004	7	...........	-327.63
	620	12.42	-2.40074E-001	2.11058E-008	0.00000E+000	-2.40000E-001	8.30076E-004	7	...........	-327.63
	622	12.46	-2.44794E-001	2.13475E-008	0.00000E+000	-2.44000E-001	8.18410E-004	7	...........	-327.63
	624	12.5	-2.49024E-001	2.14767E-008	0.00000E+000	-2.48000E-001	8.23410E-004	7	...........	-327.63
	626	12.54	-2.52913E-001	2.18017E-008	0.00000E+000	-2.52000E-001	8.25076E-004	7	...........	-327.63
	628	12.58	-2.57631E-001	2.17850E-008	0.00000E+000	-2.56000E-001	8.33410E-004	7	...........	-327.63
	630	12.62	-2.60838E-001	2.16017E-008	0.00000E+000	-2.60000E-001	8.35076E-004	7	...........	-327.63
	632	12.66	-2.63519E-001	2.11100E-008	0.00000E+000	-2.64000E-001	8.40076E-004	7	...........	-327.63
	634	12.7	-2.67374E-001	2.14642E-008	0.00000E+000	-2.68000E-001	8.27576E-004	7	...........	-327.63
	636	12.74	-2.71414E-001	2.13433E-008	0.00000E+000	-2.72000E-001	8.35076E-004	7	...........	-327.63
	638	12.78	-2.75372E-001	2.14308E-008	0.00000E+000	-2.76000E-001	8.24243E-004	7	...........	-327.63
	640	12.82	-2.79981E-001	2.14517E-008	0.00000E+000	-2.80000E-001	8.22576E-004	7	...........	-327.63
	642	12.86	-2.83213E-001	2.13683E-008	0.00000E+000	-2.84000E-001	8.38410E-004	7	...........	-327.63
	644	12.9	-2.88441E-001	2.17225E-008	0.00000E+000	-2.88000E-001	8.27576E-004	7	...........	-327.63
	646	12.94	-2.91595E-001	2.15559E-008	0.00000E+000	-2.92000E-001	8.39243E-004	7	...........	-327.63
	648	12.98	-2.96099E-001	2.15309E-008	0.00000E+000	-2.96000E-001	8.45076E-004	7	...........	-327.63
	650	13.02	-2.99327E-001	2.15100E-008	0.00000E+000	-3.00000E-001	8.44243E-004	7	...........	-327.63
	652	13.06	-3.03195E-001	2.14767E-008	0.00000E+000	-3.04000E-001	8.39243E-004	7	...........	-327.63
	654	13.1	-3.07179E-001	2.13642E-008	0.00000E+000	-3.08000E-001	8.30076E-004	7	...........	-327.63
	656	13.14	-3.12202E-001	2.17059E-008	0.00000E+000	-3.12000E-001	8.24243E-004	7	...........	-327.63
	658	13.18	-3.16488E-001	2.17350E-008	0.00000E+000	-3.16000E-001	8.30076E-004	7	...........	-327.63
	660	13.22	-3.20238E-001	2.19434E-008	0.00000E+000	-3.20000E-001	8.36743E-004	7	...........	-327.63
	662	13.26	-3.25844E-001	2.23559E-008	0.00000E+000	-3.24000E-001	8.35076E-004	7	...........	-327.63
	664	13.3	-3.29642E-001	2.21434E-008	0.00000E+000	-3.28000E-001	8.13410E-004	7	...........	-327.63
	666	13.34	-3.33784E-001	2.21017E-008	0.00000E+000	-3.32000E-001	8.34243E-004	7	...........	-327.63
	668	13.38	-3.38287E-001	2.24517E-008	0.00000E+000	-3.36000E-001	8.33410E-004	7	...........	-327.63
	670	13.42	-3.42378E-001	2.23851E-008	0.00000E+000	-3.40000E-001	8.19243E-004	7	...........	-327.63
	672	13.46	-3.43479E-001	2.15892E-008	0.00000E+000	-3.44000E-001	8.26743E-004	7	...........	-327.63
	674	13.5	-3.48242E-001	2.18767E-008	0.00000E+000	-3.48000E-001	8.22576E-004	7	...........	-327.63
	676	13.54	-3.52117E-001	2.14975E-008	0.00000E+000	-3.52000E-001	8.25910E-004	7	...........	-327.63
	678	13.58	-3.55103E-001	2.12475E-008	0.00000E+000	-3.56000E-001	8.35910E-004	7	...........	-327.63
	680	13.62	-3.60063E-001	2.13517E-008	0.00000E+000	-3.60000E-001	8.40076E-004	7	...........	-327.63
	682	13.66	-3.63444E-001	2.11225E-008	0.00000E+000	-3.64000E-001	8.42576E-004	7	...........	-327.63
	684	13.7	-3.68819E-001	2.13975E-008	0.00000E+000	-3.68000E-001	8.37576E-004	7	...........	-327.63
	686	13.74	-3.71423E-001	2.09475E-008	0.00000E+000	-3.72000E-001	8.38410E-004	7	...........	-327.63
	688	13.78	-3.75108E-001	2.08433E-008	0.00000E+000	-3.76000E-001	8.27576E-004	7	...........	-327.63
	690	13.82	-3.81364E-001	2.10058E-008	0.00000E+000	-3.80000E-001	8.35910E-004	7	...........	-327.63
	692	13.86	-3.83259E-001	2.06142E-008	0.00000E+000	-3.84000E-001	8.33410E-004	7	...........	-327.63
	694	13.9	-3.87112E-001	2.04600E-008	0.00000E+000	-3.88000E-001	8.28410E-004	7	...........	-327.63
	696	13.94	-3.91155E-001	2.03141E-008	0.00000E+000	-3.92000E-001	8.29243E-004	7	...........	-327.63
	698	13.98	-3.95182E-001	2.02225E-008	0.00000E+000	-3.96000E-001	8.36743E-004	7	...........	-327.63
	700	14.02	-3.99193E-001	2.02850E-008	0.00000E+000	-4.00000E-001	8.30910E-004	7	...........	-327.63
	702	14.06	-4.03202E-001	2.02850E-008	0.00000E+000	-4.04000E-001	8.31743E-004	7	...........	-327.63
	704	14.1	-4.08054E-001	2.01725E-008	0.00000E+000	-4.08000E-001	8.27576E-004	7	...........	-327.63
	706	14.14	-4.11674E-001	2.00891E-008	0.00000E+000	-4.12000E-001	8.27576E-004	7	...........	-327.63
	708	14.18	-4.15148E-001	1.99100E-008	0.00000E+000	-4.16000E-001	8.33410E-004	7	...........	-327.63
	710	14.22	-4.18989E-001	1.97266E-008	0.00000E+000	-4.20000E-001	8.15076E-004	7	...........	-327.63
	712	14.26	-4.24045E-001	2.01266E-008	0.00000E+000	-4.24000E-001	8.18410E-004	7	...........	-327.63
	714	14.3	-4.27842E-001	1.99350E-008	0.00000E+000	-4.28000E-001	8.22576E-004	7	...........	-327.63
	716	14.34	-4.30997E-001	1.97475E-008	0.00000E+000	-4.32000E-001	8.31743E-004	7	...........	-327.63
	718	14.38	-4.35019E-001	1.96058E-008	0.00000E+000	-4.36000E-001	8.45076E-004	7	...........	-327.63
	720	14.42	-4.39030E-001	1.97850E-008	0.00000E+000	-4.40000E-001	8.29243E-004	7	...........	-327.63
	722	14.46	-4.42912E-001	1.92183E-008	0.00000E+000	-4.44000E-001	8.25910E-004	7	...........	-327.63
	724	14.5	-4.47006E-001	1.91933E-008	0.00000E+000	-4.48000E-001	8.40076E-004	7	...........	-327.63
	726	14.54	-4.50816E-001	1.91349E-008	0.00000E+000	-4.52000E-001	8.20076E-004	7	...........	-327.63
	728	14.58	-4.54870E-001	1.89308E-008	0.00000E+000	-4.56000E-001	8.27576E-004	7	...........	-327.63
	730	14.62	-4.58978E-001	1.88141E-008	0.00000E+000	-4.60000E-001	8.27576E-004	7	...........	-327.63
	732	14.66	-4.62895E-001	1.87016E-008	0.00000E+000	-4.64000E-001	8.29243E-004	7	...........	-327.63
	734	14.7	-4.66927E-001	1.84474E-008	0.00000E+000	-4.68000E-001	8.33410E-004	7	...........	-327.63
	736	14.74	-4.70871E-001	1.82599E-008	0.00000E+000	-4.72000E-001	8.20910E-004	7	...........	-327.63
	738	14.78	-4.75555E-001	1.82932E-008	0.00000E+000	-4.76000E-001	8.43410E-004	7	...........	-327.63
	740	14.82	-4.78772E-001	1.80724E-008	0.00000E+000	-4.80000E-001	8.23410E-004	7	...........	-327.63
	742	14.86	-4.82800E-001	1.76724E-008	0.00000E+000	-4.84000E-001	8.21743E-004	7	...........	-327.63
	744	14.9	-4.86806E-001	1.76640E-008	0.00000E+000	-4.88000E-001	8.32576E-004	7	...........	-327.63
	746	14.94	-4.90745E-001	1.73932E-008	0.00000E+000	-4.92000E-001	8.28410E-004	7	...........	-327.63
	748	14.98	-4.94749E-001	1.72474E-008	0.00000E+000	-4.96000E-001	8.31743E-004	7	...........	-327.63
	750	15.02	-4.98748E-001	1.70682E-008	0.00000E+000	-5.00000E-001	8.20076E-004	7	...........	-327.63
CURVE2	TABLE
	Pt	T	Vf	Im	Vu	Sig	Ach	IERange	Over	Temp
	#	s	V vs. Ref.	A	V	V	V	#	bits	deg C
	751	15.04	-4.96715E-001	1.70849E-008	0.00000E+000	-4.98000E-001	7.70076E-004	7	...........	-327.63
	753	15.08	-4.92714E-001	1.67515E-008	0.00000E+000	-4.94000E-001	7.62576E-004	7	...........	-327.63
	755	15.12	-4.88707E-001	1.65640E-008	0.00000E+000	-4.90000E-001	7.69243E-004	7	...........	-327.63
	757	15.16	-4.84669E-001	1.65765E-008	0.00000E+000	-4.86000E-001	7.61743E-004	7	...........	-327.63
	759	15.2	-4.80497E-001	1.63015E-008	0.00000E+000	-4.82000E-001	7.71743E-004	7	...........	-327.63
[...]
	2805	56.12	-3.85522E-001	-9.47030E-009	0.00000E+000	-3.90000E-001	4.40076E-004	7	...........	-327.63
	2806	56.14	-3.83530E-001	-9.17029E-009	0.00000E+000	-3.88000E-001	4.13410E-004	7	...........	-327.63
	2807	56.16	-3.81542E-001	-9.33280E-009	0.00000E+000	-3.86000E-001	4.18410E-004	7	...........	-327.63
	2808	56.18	-3.80246E-001	-9.14112E-009	0.00000E+000	-3.84000E-001	4.41743E-004	7	...........	-327.63
	2809	56.2	-3.77532E-001	-9.27029E-009	0.00000E+000	-3.82000E-001	4.29243E-004	7	...........	-327.63
	2810	56.22	-3.75544E-001	-9.32030E-009	0.00000E+000	-3.80000E-001	4.39243E-004	7	...........	-327.63
	2811	56.24	-3.73545E-001	-9.29113E-009	0.00000E+000	-3.78000E-001	4.20076E-004	7	...........	-327.63
	2812	56.26	-3.71560E-001	-9.44113E-009	0.00000E+000	-3.76000E-001	4.15076E-004	7	...........	-327.63
	2813	56.28	-3.69552E-001	-9.35363E-009	0.00000E+000	-3.74000E-001	4.19243E-004	7	...........	-327.63
	2814	56.3	-3.67542E-001	-9.47863E-009	0.00000E+000	-3.72000E-001	4.45910E-004	7	...........	-327.63
	2815	56.32	-3.65570E-001	-9.23279E-009	0.00000E+000	-3.70000E-001	4.12576E-004	7	...........	-327.63
	2816	56.34	-3.63558E-001	-9.34113E-009	0.00000E+000	-3.68000E-001	4.40910E-004	7	...........	-327.63
	2817	56.36	-3.61564E-001	-9.38696E-009	0.00000E+000	-3.66000E-001	4.10910E-004	7	...........	-327.63
	2818	56.38	-3.59583E-001	-9.31613E-009	0.00000E+000	-3.64000E-001	4.40076E-004	7	...........	-327.63
	2819	56.4	-3.57607E-001	-9.29946E-009	0.00000E+000	-3.62000E-001	4.29243E-004	7	...........	-327.63
	2820	56.42	-3.55604E-001	-9.36196E-009	0.00000E+000	-3.60000E-001	4.61743E-004	7	...........	-327.63
	2821	56.44	-3.53612E-001	-9.24529E-009	0.00000E+000	-3.58000E-001	4.18410E-004	7	...........	-327.63
	2822	56.46	-3.51618E-001	-9.28279E-009	0.00000E+000	-3.56000E-001	4.31743E-004	7	...........	-327.63
	2823	56.48	-3.49596E-001	-9.34113E-009	0.00000E+000	-3.54000E-001	4.26743E-004	7	...........	-327.63
	2824	56.5	-3.47606E-001	-9.44947E-009	0.00000E+000	-3.52000E-001	4.13410E-004	7	...........	-327.63
	2825	56.52	-3.45620E-001	-9.11612E-009	0.00000E+000	-3.50000E-001	4.12576E-004	7	...........	-327.63
	2826	56.54	-3.43625E-001	-9.36196E-009	0.00000E+000	-3.48000E-001	4.64243E-004	7	...........	-327.63
	2827	56.56	-3.41620E-001	-9.17446E-009	0.00000E+000	-3.46000E-001	4.30910E-004	7	...........	-327.63
	2828	56.58	-3.39629E-001	-9.27029E-009	0.00000E+000	-3.44000E-001	4.59243E-004	7	...........	-327.63
	2829	56.6	-3.37626E-001	-9.17446E-009	0.00000E+000	-3.42000E-001	4.37576E-004	7	...........	-327.63
	2830	56.62	-3.35631E-001	-9.04529E-009	0.00000E+000	-3.40000E-001	4.35910E-004	7	...........	-327.63
	2831	56.64	-3.33630E-001	-9.11195E-009	0.00000E+000	-3.38000E-001	4.08410E-004	7	...........	-327.63
	2832	56.66	-3.31651E-001	-9.12862E-009	0.00000E+000	-3.36000E-001	4.29243E-004	7	...........	-327.63
	2833	56.68	-3.29649E-001	-8.91611E-009	0.00000E+000	-3.34000E-001	4.13410E-004	7	...........	-327.63
	2834	56.7	-3.27656E-001	-8.91611E-009	0.00000E+000	-3.32000E-001	4.25076E-004	7	...........	-327.63
	2835	56.72	-3.25658E-001	-8.90361E-009	0.00000E+000	-3.30000E-001	4.10910E-004	7	...........	-327.63
	2836	56.74	-3.24095E-001	-8.76611E-009	0.00000E+000	-3.28000E-001	4.36743E-004	7	...........	-327.63
	2837	56.76	-3.21643E-001	-8.92445E-009	0.00000E+000	-3.26000E-001	4.20910E-004	7	...........	-327.63
	2838	56.78	-3.19886E-001	-8.87445E-009	0.00000E+000	-3.24000E-001	4.08410E-004	7	...........	-327.63
	2839	56.8	-3.17426E-001	-8.95362E-009	0.00000E+000	-3.22000E-001	4.53410E-004	7	...........	-327.63
	2840	56.82	-3.15838E-001	-8.59527E-009	0.00000E+000	-3.20000E-001	4.06743E-004	7	...........	-327.63
	2841	56.84	-3.13712E-001	-8.77444E-009	0.00000E+000	-3.18000E-001	3.99243E-004	7	...........	-327.63
	2842	56.86	-3.11728E-001	-8.75361E-009	0.00000E+000	-3.16000E-001	4.26743E-004	7	...........	-327.63
	2843	56.88	-3.09139E-001	-8.98278E-009	0.00000E+000	-3.14000E-001	4.13410E-004	7	...........	-327.63
	2844	56.9	-3.07592E-001	-8.87861E-009	0.00000E+000	-3.12000E-001	4.15910E-004	7	...........	-327.63
	2845	56.92	-3.05814E-001	-8.46610E-009	0.00000E+000	-3.10000E-001	4.30910E-004	7	...........	-327.63
	2846	56.94	-3.04077E-001	-8.41193E-009	0.00000E+000	-3.08000E-001	4.25910E-004	7	...........	-327.63
	2847	56.96	-3.01836E-001	-8.61610E-009	0.00000E+000	-3.06000E-001	4.37576E-004	7	...........	-327.63
	2848	56.98	-2.99833E-001	-8.49526E-009	0.00000E+000	-3.04000E-001	4.10910E-004	7	...........	-327.63
	2849	57	-2.97813E-001	-8.64944E-009	0.00000E+000	-3.02000E-001	4.11743E-004	7	...........	-327.63
	2850	57.02	-2.95752E-001	-8.49110E-009	0.00000E+000	-3.00000E-001	4.34243E-004	7	...........	-327.63
	2851	57.04	-2.94242E-001	-8.32859E-009	0.00000E+000	-2.98000E-001	4.45076E-004	7	...........	-327.63
	2852	57.06	-2.91860E-001	-8.36609E-009	0.00000E+000	-2.96000E-001	4.44243E-004	7	...........	-327.63
	2853	57.08	-2.89782E-001	-8.42443E-009	0.00000E+000	-2.94000E-001	4.24243E-004	7	...........	-327.63
	2854	57.1	-2.87802E-001	-8.34526E-009	0.00000E+000	-2.92000E-001	4.24243E-004	7	...........	-327.63
	2855	57.12	-2.85833E-001	-8.30776E-009	0.00000E+000	-2.90000E-001	4.24243E-004	7	...........	-327.63
	2856	57.14	-2.83800E-001	-8.47443E-009	0.00000E+000	-2.88000E-001	4.50910E-004	7	...........	-327.63
	2857	57.16	-2.81831E-001	-8.35776E-009	0.00000E+000	-2.86000E-001	4.11743E-004	7	...........	-327.63
	2858	57.18	-2.79813E-001	-8.32443E-009	0.00000E+000	-2.84000E-001	4.46743E-004	7	...........	-327.63
	2859	57.2	-2.77824E-001	-8.22859E-009	0.00000E+000	-2.82000E-001	4.13410E-004	7	...........	-327.63
	2860	57.22	-2.75819E-001	-8.14109E-009	0.00000E+000	-2.80000E-001	4.17576E-004	7	...........	-327.63
	2861	57.24	-2.73830E-001	-8.09525E-009	0.00000E+000	-2.78000E-001	4.19243E-004	7	...........	-327.63
	2862	57.26	-2.71817E-001	-8.12442E-009	0.00000E+000	-2.76000E-001	4.20076E-004	7	...........	-327.63
	2863	57.28	-2.69827E-001	-8.07858E-009	0.00000E+000	-2.74000E-001	4.26743E-004	7	...........	-327.63
	2864	57.3	-2.67830E-001	-8.01608E-009	0.00000E+000	-2.72000E-001	4.33410E-004	7	...........	-327.63
	2865	57.32	-2.65835E-001	-7.98691E-009	0.00000E+000	-2.70000E-001	4.32576E-004	7	...........	-327.63
	2866	57.34	-2.63772E-001	-7.97858E-009	0.00000E+000	-2.68000E-001	4.55076E-004	7	...........	-327.63
	2867	57.36	-2.61935E-001	-8.07442E-009	0.00000E+000	-2.66000E-001	4.24243E-004	7	...........	-327.63
	2868	57.38	-2.59975E-001	-7.79107E-009	0.00000E+000	-2.64000E-001	4.35910E-004	7	...........	-327.63
	2869	57.4	-2.57917E-001	-7.83691E-009	0.00000E+000	-2.62000E-001	4.35910E-004	7	...........	-327.63
	2870	57.42	-2.55942E-001	-7.85774E-009	0.00000E+000	-2.60000E-001	4.45076E-004	7	...........	-327.63
	2871	57.44	-2.53956E-001	-7.81191E-009	0.00000E+000	-2.58000E-001	4.13410E-004	7	...........	-327.63
	2872	57.46	-2.51990E-001	-7.72440E-009	0.00000E+000	-2.56000E-001	4.05910E-004	7	...........	-327.63
	2873	57.48	-2.50035E-001	-7.59523E-009	0.00000E+000	-2.54000E-001	4.39243E-004	7	...........	-327.63
	2874	57.5	-2.48094E-001	-7.50356E-009	0.00000E+000	-2.52000E-001	4.16743E-004	7	...........	-327.63
	2875	57.52	-2.46025E-001	-7.67857E-009	0.00000E+000	-2.50000E-001	4.68410E-004	7	...........	-327.63
	2876	57.54	-2.44102E-001	-7.59523E-009	0.00000E+000	-2.48000E-001	4.08410E-004	7	...........	-327.63
	2877	57.56	-2.42070E-001	-7.53273E-009	0.00000E+000	-2.46000E-001	4.25076E-004	7	...........	-327.63
	2878	57.58	-2.39933E-001	-7.54106E-009	0.00000E+000	-2.44000E-001	4.30910E-004	7	...........	-327.63
	2879	57.6	-2.37782E-001	-7.54523E-009	0.00000E+000	-2.42000E-001	4.27576E-004	7	...........	-327.63
	2880	57.62	-2.36221E-001	-7.48689E-009	0.00000E+000	-2.40000E-001	4.10076E-004	7	...........	-327.63
	2881	57.64	-2.34075E-001	-7.44106E-009	0.00000E+000	-2.38000E-001	4.40910E-004	7	...........	-327.63
	2882	57.66	-2.32083E-001	-7.42856E-009	0.00000E+000	-2.36000E-001	4.10076E-004	7	...........	-327.63
	2883	57.68	-2.29870E-001	-7.24939E-009	0.00000E+000	-2.34000E-001	4.24243E-004	7	...........	-327.63
	2884	57.7	-2.28107E-001	-7.12855E-009	0.00000E+000	-2.32000E-001	4.25076E-004	7	...........	-327.63
	2885	57.72	-2.26044E-001	-7.22438E-009	0.00000E+000	-2.30000E-001	4.20910E-004	7	...........	-327.63
	2886	57.74	-2.24020E-001	-7.21605E-009	0.00000E+000	-2.28000E-001	4.38410E-004	7	...........	-327.63
	2887	57.76	-2.21981E-001	-7.17438E-009	0.00000E+000	-2.26000E-001	4.16743E-004	7	...........	-327.63
	2888	57.78	-2.19994E-001	-6.95354E-009	0.00000E+000	-2.24000E-001	4.25910E-004	7	...........	-327.63
	2889	57.8	-2.17999E-001	-7.18688E-009	0.00000E+000	-2.22000E-001	4.54243E-004	7	...........	-327.63
	2890	57.82	-2.16032E-001	-7.01188E-009	0.00000E+000	-2.20000E-001	4.39243E-004	7	...........	-327.63
	2891	57.84	-2.14042E-001	-6.96187E-009	0.00000E+000	-2.18000E-001	4.19243E-004	7	...........	-327.63
	2892	57.86	-2.11973E-001	-6.90771E-009	0.00000E+000	-2.16000E-001	4.45076E-004	7	...........	-327.63
	2893	57.88	-2.09977E-001	-6.93687E-009	0.00000E+000	-2.14000E-001	4.27576E-004	7	...........	-327.63
	2894	57.9	-2.07966E-001	-6.90771E-009	0.00000E+000	-2.12000E-001	4.40910E-004	7	...........	-327.63
	2895	57.92	-2.06005E-001	-6.87020E-009	0.00000E+000	-2.10000E-001	4.31743E-004	7	...........	-327.63
	2896	57.94	-2.04001E-001	-6.75353E-009	0.00000E+000	-2.08000E-001	4.26743E-004	7	...........	-327.63
	2897	57.96	-2.02012E-001	-6.74103E-009	0.00000E+000	-2.06000E-001	4.15910E-004	7	...........	-327.63
	2898	57.98	-2.00014E-001	-6.72437E-009	0.00000E+000	-2.04000E-001	4.29243E-004	7	...........	-327.63
	2899	58	-1.98031E-001	-6.78687E-009	0.00000E+000	-2.02000E-001	4.26743E-004	7	...........	-327.63
	2900	58.02	-1.96045E-001	-6.67020E-009	0.00000E+000	-2.00000E-001	4.27576E-004	7	...........	-327.63
	2901	58.04	-1.94030E-001	-6.59936E-009	0.00000E+000	-1.98000E-001	4.33410E-004	7	...........	-327.63
	2902	58.06	-1.92031E-001	-6.72437E-009	0.00000E+000	-1.96000E-001	4.16743E-004	7	...........	-327.63
	2903	58.08	-1.90051E-001	-6.59936E-009	0.00000E+000	-1.94000E-001	4.26743E-004	7	...........	-327.63
	2904	58.1	-1.88273E-001	-6.39935E-009	0.00000E+000	-1.92000E-001	4.22576E-004	7	...........	-327.63
	2905	58.12	-1.86120E-001	-6.47852E-009	0.00000E+000	-1.90000E-001	4.35910E-004	7	...........	-327.63
	2906	58.14	-1.84190E-001	-6.40352E-009	0.00000E+000	-1.88000E-001	4.06743E-004	7	...........	-327.63
	2907	58.16	-1.82044E-001	-6.53269E-009	0.00000E+000	-1.86000E-001	4.48410E-004	7	...........	-327.63
	2908	58.18	-1.80032E-001	-6.42019E-009	0.00000E+000	-1.84000E-001	4.30076E-004	7	...........	-327.63
	2909	58.2	-1.78654E-001	-6.04101E-009	0.00000E+000	-1.82000E-001	4.41743E-004	7	...........	-327.63
	2910	58.22	-1.76076E-001	-6.08268E-009	0.00000E+000	-1.80000E-001	4.30910E-004	7	...........	-327.63
	2911	58.24	-1.74285E-001	-6.22435E-009	0.00000E+000	-1.78000E-001	4.38410E-004	7	...........	-327.63
	2912	58.26	-1.72139E-001	-6.11184E-009	0.00000E+000	-1.76000E-001	4.24243E-004	7	...........	-327.63
	2913	58.28	-1.70116E-001	-5.84100E-009	0.00000E+000	-1.74000E-001	4.35076E-004	7	...........	-327.63
	2914	58.3	-1.68136E-001	-6.16601E-009	0.00000E+000	-1.72000E-001	4.30076E-004	7	...........	-327.63
	2915	58.32	-1.65377E-001	-6.18268E-009	0.00000E+000	-1.70000E-001	4.30910E-004	7	...........	-327.63
	2916	58.34	-1.64413E-001	-5.88267E-009	0.00000E+000	-1.68000E-001	4.26743E-004	7	...........	-327.63
	2917	58.36	-1.62310E-001	-5.94517E-009	0.00000E+000	-1.66000E-001	4.35076E-004	7	...........	-327.63
	2918	58.38	-1.60297E-001	-5.72433E-009	0.00000E+000	-1.64000E-001	4.36743E-004	7	...........	-327.63
	2919	58.4	-1.58211E-001	-5.97017E-009	0.00000E+000	-1.62000E-001	4.33410E-004	7	...........	-327.63
	2920	58.42	-1.55508E-001	-6.06184E-009	0.00000E+000	-1.60000E-001	4.21743E-004	7	...........	-327.63
	2921	58.44	-1.54372E-001	-5.71599E-009	0.00000E+000	-1.58000E-001	4.20076E-004	7	...........	-327.63
	2922	58.46	-1.52334E-001	-5.66599E-009	0.00000E+000	-1.56000E-001	4.27576E-004	7	...........	-327.63
	2923	58.48	-1.50247E-001	-5.71599E-009	0.00000E+000	-1.54000E-001	4.18410E-004	7	...........	-327.63
	2924	58.5	-1.48529E-001	-5.48265E-009	0.00000E+000	-1.52000E-001	4.10910E-004	7	...........	-327.63
	2925	58.52	-1.46348E-001	-5.43682E-009	0.00000E+000	-1.50000E-001	4.20076E-004	7	...........	-327.63
	2926	58.54	-1.44720E-001	-5.39098E-009	0.00000E+000	-1.48000E-001	4.30076E-004	7	...........	-327.63
	2927	58.56	-1.42067E-001	-5.53682E-009	0.00000E+000	-1.46000E-001	4.36743E-004	7	...........	-327.63
	2928	58.58	-1.40427E-001	-5.54516E-009	0.00000E+000	-1.44000E-001	4.32576E-004	7	...........	-327.63
	2929	58.6	-1.38465E-001	-5.55766E-009	0.00000E+000	-1.42000E-001	4.49243E-004	7	...........	-327.63
	2930	58.62	-1.36451E-001	-5.48265E-009	0.00000E+000	-1.40000E-001	4.37576E-004	7	...........	-327.63
	2931	58.64	-1.34524E-001	-5.39932E-009	0.00000E+000	-1.38000E-001	4.36743E-004	7	...........	-327.63
	2932	58.66	-1.32093E-001	-5.70766E-009	0.00000E+000	-1.36000E-001	4.55076E-004	7	...........	-327.63
	2933	58.68	-1.30757E-001	-5.12431E-009	0.00000E+000	-1.34000E-001	4.36743E-004	7	...........	-327.63
	2934	58.7	-1.28294E-001	-5.32848E-009	0.00000E+000	-1.32000E-001	4.45910E-004	7	...........	-327.63
	2935	58.72	-1.26536E-001	-5.21598E-009	0.00000E+000	-1.30000E-001	4.34243E-004	7	...........	-327.63
	2936	58.74	-1.24254E-001	-5.20764E-009	0.00000E+000	-1.28000E-001	4.27576E-004	7	...........	-327.63
	2937	58.76	-1.22515E-001	-5.11597E-009	0.00000E+000	-1.26000E-001	4.17576E-004	7	...........	-327.63
	2938	58.78	-1.20434E-001	-5.00347E-009	0.00000E+000	-1.24000E-001	4.25910E-004	7	...........	-327.63
	2939	58.8	-1.18566E-001	-5.02430E-009	0.00000E+000	-1.22000E-001	4.25076E-004	7	...........	-327.63
	2940	58.82	-1.16568E-001	-5.15347E-009	0.00000E+000	-1.20000E-001	4.28410E-004	7	...........	-327.63
	2941	58.84	-1.14544E-001	-5.10764E-009	0.00000E+000	-1.18000E-001	4.25910E-004	7	...........	-327.63
	2942	58.86	-1.12442E-001	-5.16597E-009	0.00000E+000	-1.16000E-001	4.53410E-004	7	...........	-327.63
	2943	58.88	-1.10426E-001	-4.88263E-009	0.00000E+000	-1.14000E-001	4.32576E-004	7	...........	-327.63
	2944	58.9	-1.08641E-001	-4.84930E-009	0.00000E+000	-1.12000E-001	4.33410E-004	7	...........	-327.63
	2945	58.92	-1.06589E-001	-4.90763E-009	0.00000E+000	-1.10000E-001	4.30076E-004	7	...........	-327.63
	2946	58.94	-1.04384E-001	-4.98680E-009	0.00000E+000	-1.08000E-001	4.24243E-004	7	...........	-327.63
	2947	58.96	-1.02543E-001	-4.74513E-009	0.00000E+000	-1.06000E-001	4.36743E-004	7	...........	-327.63
	2948	58.98	-1.00554E-001	-4.85763E-009	0.00000E+000	-1.04000E-001	4.20076E-004	7	...........	-327.63
	2949	59	-9.73632E-002	-5.11597E-009	0.00000E+000	-1.02000E-001	4.15076E-004	7	...........	-327.63
	2950	59.02	-9.71557E-002	-4.81596E-009	0.00000E+000	-1.00000E-001	4.28410E-004	7	...........	-327.63
	2951	59.04	-9.45682E-002	-4.88680E-009	0.00000E+000	-9.80000E-002	4.48410E-004	7	...........	-327.63
	2952	59.06	-9.27824E-002	-4.76596E-009	0.00000E+000	-9.60000E-002	4.05910E-004	7	...........	-327.63
	2953	59.08	-9.08437E-002	-4.74513E-009	0.00000E+000	-9.40000E-002	4.34243E-004	7	...........	-327.63
	2954	59.1	-8.84912E-002	-4.86596E-009	0.00000E+000	-9.20000E-002	4.19243E-004	7	...........	-327.63
	2955	59.12	-8.64241E-002	-5.02430E-009	0.00000E+000	-9.00000E-002	4.27576E-004	7	...........	-327.63
	2956	59.14	-8.44362E-002	-4.77846E-009	0.00000E+000	-8.80000E-002	4.12576E-004	7	...........	-327.63
	2957	59.16	-8.24299E-002	-4.97847E-009	0.00000E+000	-8.60000E-002	4.44243E-004	7	...........	-327.63
	2958	59.18	-8.03816E-002	-4.92013E-009	0.00000E+000	-8.40000E-002	4.27576E-004	7	...........	-327.63
	2959	59.2	-7.84307E-002	-4.89096E-009	0.00000E+000	-8.20000E-002	4.32576E-004	7	...........	-327.63
	2960	59.22	-7.64049E-002	-4.92847E-009	0.00000E+000	-8.00000E-002	4.23410E-004	7	...........	-327.63
	2961	59.24	-7.52028E-002	-4.63262E-009	0.00000E+000	-7.80000E-002	4.20910E-004	7	...........	-327.63
	2962	59.26	-7.14932E-002	-5.11181E-009	0.00000E+000	-7.60000E-002	4.22576E-004	7	...........	-327.63
	2963	59.28	-7.04166E-002	-4.84096E-009	0.00000E+000	-7.40000E-002	4.38410E-004	7	...........	-327.63
	2964	59.3	-6.82737E-002	-4.88680E-009	0.00000E+000	-7.20000E-002	4.50910E-004	7	...........	-327.63
	2965	59.32	-6.64374E-002	-4.77429E-009	0.00000E+000	-7.00000E-002	4.58410E-004	7	...........	-327.63
	2966	59.34	-6.44966E-002	-4.73262E-009	0.00000E+000	-6.80000E-002	4.45910E-004	7	...........	-327.63
	2967	59.36	-6.24895E-002	-4.91180E-009	0.00000E+000	-6.60000E-002	4.35910E-004	7	...........	-327.63
	2968	59.38	-6.08020E-002	-4.49095E-009	0.00000E+000	-6.40000E-002	4.26743E-004	7	...........	-327.63
	2969	59.4	-5.88828E-002	-4.37844E-009	0.00000E+000	-6.20000E-002	4.21743E-004	7	...........	-327.63
	2970	59.42	-5.68453E-002	-4.30761E-009	0.00000E+000	-6.00000E-002	4.51743E-004	7	...........	-327.63
	2971	59.44	-5.48995E-002	-4.30761E-009	0.00000E+000	-5.80000E-002	4.21743E-004	7	...........	-327.63
	2972	59.46	-5.25153E-002	-4.36178E-009	0.00000E+000	-5.60000E-002	4.25076E-004	7	...........	-327.63
	2973	59.48	-5.08699E-002	-4.19094E-009	0.00000E+000	-5.40000E-002	4.35076E-004	7	...........	-327.63
	2974	59.5	-4.88895E-002	-4.21177E-009	0.00000E+000	-5.20000E-002	4.25910E-004	7	...........	-327.63
	2975	59.52	-4.67428E-002	-4.28261E-009	0.00000E+000	-5.00000E-002	4.24243E-004	7	...........	-327.63
	2976	59.54	-4.49345E-002	-4.08260E-009	0.00000E+000	-4.80000E-002	4.20910E-004	7	...........	-327.63
	2977	59.56	-4.28991E-002	-4.00760E-009	0.00000E+000	-4.60000E-002	4.31743E-004	7	...........	-327.63
	2978	59.58	-4.08153E-002	-4.12844E-009	0.00000E+000	-4.40000E-002	4.21743E-004	7	...........	-327.63
	2979	59.6	-3.90087E-002	-3.93259E-009	0.00000E+000	-4.20000E-002	4.40076E-004	7	...........	-327.63
	2980	59.62	-3.69474E-002	-3.99510E-009	0.00000E+000	-4.00000E-002	4.42576E-004	7	...........	-327.63
	2981	59.64	-3.49720E-002	-4.02843E-009	0.00000E+000	-3.80000E-002	4.29243E-004	7	...........	-327.63
	2982	59.66	-3.30162E-002	-3.83676E-009	0.00000E+000	-3.60000E-002	4.29243E-004	7	...........	-327.63
	2983	59.68	-3.09070E-002	-3.97843E-009	0.00000E+000	-3.40000E-002	4.26743E-004	7	...........	-327.63
	2984	59.7	-2.90399E-002	-3.82009E-009	0.00000E+000	-3.20000E-002	4.28410E-004	7	...........	-327.63
	2985	59.72	-2.69337E-002	-3.71175E-009	0.00000E+000	-3.00000E-002	4.23410E-004	7	...........	-327.63
	2986	59.74	-2.47491E-002	-3.74925E-009	0.00000E+000	-2.80000E-002	4.45076E-004	7	...........	-327.63
	2987	59.76	-2.28645E-002	-3.72009E-009	0.00000E+000	-2.60000E-002	4.23410E-004	7	...........	-327.63
	2988	59.78	-2.05982E-002	-3.65342E-009	0.00000E+000	-2.40000E-002	4.44243E-004	7	...........	-327.63
	2989	59.8	-1.78370E-002	-3.91593E-009	0.00000E+000	-2.20000E-002	4.21743E-004	7	...........	-327.63
	2990	59.82	-1.64895E-002	-3.63258E-009	0.00000E+000	-2.00000E-002	4.22576E-004	7	...........	-327.63
	2991	59.84	-1.46124E-002	-3.42424E-009	0.00000E+000	-1.80000E-002	4.21743E-004	7	...........	-327.63
	2992	59.86	-1.24528E-002	-3.67842E-009	0.00000E+000	-1.60000E-002	4.30076E-004	7	...........	-327.63
	2993	59.88	-1.08749E-002	-3.46591E-009	0.00000E+000	-1.40000E-002	4.34243E-004	7	...........	-327.63
	2994	59.9	-8.55991E-003	-3.35341E-009	0.00000E+000	-1.20000E-002	4.32576E-004	7	...........	-327.63
	2995	59.92	-7.76074E-003	-2.89089E-009	0.00000E+000	-1.00000E-002	4.25076E-004	7	...........	-327.63
	2996	59.94	-4.17366E-003	-3.59925E-009	0.00000E+000	-8.00000E-003	4.33410E-004	7	...........	-327.63
	2997	59.96	-2.75199E-003	-3.29924E-009	0.00000E+000	-6.00000E-003	4.23410E-004	7	...........	-327.63
	2998	59.98	-8.61577E-004	-3.21590E-009	0.00000E+000	-4.00000E-003	4.30076E-004	7	...........	-327.63
	2999	60	1.14467E-003	-3.23257E-009	0.00000E+000	-2.00000E-003	4.53410E-004	7	...........	-327.63
	3000	60.02	2.82926E-003	-2.99089E-009	0.00000E+000	0.00000E+000	4.35076E-004	7	...........	-327.63