File: Gamry/CV_smallGrid_noBuffer_1.DTA
EXPLAIN
TAG	CV
TITLE	LABEL	Cyclic Voltammetry	Test &Identifier
DATE	LABEL	5-12-2022	Date
TIME	LABEL	13:09:27	Time
NOTES	NOTES	1	&Notes...

PSTAT	PSTAT	REF3000-20110	Potentiostat
VINIT	POTEN	0.00000E+000	F	Initial &E (V)
VLIMIT1	POTEN	5.00000E-001	F	Scan Limit &1 (V)
VLIMIT2	POTEN	-5.00000E-001	F	Scan Limit &2 (V)
VFINAL	POTEN	0.00000E+000	F	Final &E (V)
SCANRATE	QUANT	9.99998E+001	&Scan Rate (mV/s)
STEPSIZE	QUANT	2.00000E+000	St&ep Size (mV)
CYCLES	IQUANT	3	C&ycles (#)
IMODE	SELECTOR	0	I/E Range &Mode
IRANGE	QUANT	3.00000E-001	&Max Current (mA)
AREA	QUANT	1.00000E+000	Electrode &Area (cm^2)
ELECTRODETYPE	SELECTOR	0	Electrode Type
STRIPPING	TOGGLE	F	Used for Stripping
CONDIT	TWOPARAM	F	1.50000E+001	0.00000E+000	Conditionin&g	Time(s)	E(V)
DELAY	TWOPARAM	F	3.00000E+001	0.00000E+000	Init. De&lay	Time(s)	Stab.(mV/s)
EQDELAY	QUANT	0.00000E+000	Equil. &Time (s)
IRCOMP	SELECTOR	0	IRCom&p
PFCOR	QUANT	5.00000E+001	PF Corr. (ohm)
SAMPLINGMODE	SELECTOR	1	Sampling &Mode
EOC	QUANT	0	Open Circuit (V)
PSTATMODEL	IQUANT	5	Pstat Model
PSTATSECTION	LABEL	REF3000-20110	Pstat Section
PSTATSERIALNO	LABEL	20110	Pstat Serial Number
CTRLMODE	IQUANT	1	Control Mode
ELECTROMETER	IQUANT	0	RE=0 or CS=1
IESTAB	IQUANT	2	I/E Stability
CASPEED	IQUANT	4	Control Amp Speed
CONVENTION	IQUANT	1	Current Convention
ICHRANGE	IQUANT	2	Ich Range
ICHRANGEMODE	TOGGLE	F	Ich Auto Range
ICHOFFSETENABLE	TOGGLE	F	Ich Offset Enable
ICHOFFSET	QUANT	0	Ich Offset (V)
ICHFILTER	IQUANT	2	Ich Filter
VCHRANGE	IQUANT	2	Vch Range
VCHRANGEMODE	TOGGLE	F	Vch Auto Range
VCHOFFSETENABLE	TOGGLE	F	Vch Offset Enable
VCHOFFSET	QUANT	0	Vch Offset (V)
VCHFILTER	IQUANT	2	Vch Filter
ACHRANGE	IQUANT	2	Ach Range
ACHOFFSETENABLE	TOGGLE	F	Ach Offset Enable
ACHOFFSET	QUANT	0	Ach Offset (V)
ACHFILTER	IQUANT	1	Ach Filter
IERANGELOWERLIMIT	IQUANT	2	I/E Range Lower Limit
IERANGEMODE	TOGGLE	T	I/E AutoRange
IERANGE	IQUANT	9	I/E Range
POSFEEDENABLE	TOGGLE	F	Positive Feedback IR Comp
POSFEEDRESISTANCE	QUANT	0	Positive Feedback Resistance (ohm)
ACHSELECT	IQUANT	4	Ach Select
SENSECABLEID	IQUANT	14	Sense Cable ID
PWRCABLEID	IQUANT	7	Power Cable ID
DCCALDATE	LABEL	8/9/2022	DC Calibration Date
ACCALDATE	LABEL	8/9/2022	AC Calibration Date
THERMOSELECT	IQUANT	1	Thermo Select
FRAMEWORKVERSION	LABEL	7.9.0	Framework Version
INSTRUMENTVERSION	LABEL	4.60	Instrument Version
COMPLIANCEVOLTAGE	IQUANT	0	Compliance Voltage
CURVE1	TABLE
	Pt	T	Vf	Im	Vu	Sig	Ach	IERange	Over	Temp
	#	s	V vs. Ref.	A	V	V	V	#	bits	deg C
	0	0.02	-4.40686E-004	-1.31246E-007	0.00000E+000	0.00000E+000	7.81743E-004	9	...........	-327.63
	2	0.06	3.60634E-003	1.76140E-008	0.00000E+000	4.00000E-003	7.90076E-004	7	...........	-327.63
	4	0.1	7.60801E-003	1.76890E-008	0.00000E+000	8.00000E-003	8.20076E-004	7	...........	-327.63
	6	0.14	1.15943E-002	1.75140E-008	0.00000E+000	1.20000E-002	7.78410E-004	7	...........	-327.63
	8	0.18	1.55234E-002	1.74682E-008	0.00000E+000	1.60000E-002	7.78410E-004	7	...........	-327.63
	10	0.22	1.95376E-002	1.73474E-008	0.00000E+000	2.00000E-002	7.95076E-004	7	...........	-327.63
	12	0.26	2.35259E-002	1.74765E-008	0.00000E+000	2.40000E-002	7.81743E-004	7	...........	-327.63
	14	0.3	2.75097E-002	1.74057E-008	0.00000E+000	2.80000E-002	8.06743E-004	7	...........	-327.63
	16	0.34	3.14834E-002	1.74765E-008	0.00000E+000	3.20000E-002	7.95076E-004	7	...........	-327.63
	18	0.38	3.54659E-002	1.74057E-008	0.00000E+000	3.60000E-002	7.95076E-004	7	...........	-327.63
	20	0.42	3.93518E-002	1.74557E-008	0.00000E+000	4.00000E-002	7.98410E-004	7	...........	-327.63
	22	0.46	4.33426E-002	1.75307E-008	0.00000E+000	4.40000E-002	8.26743E-004	7	...........	-327.63
	24	0.5	4.73397E-002	1.76682E-008	0.00000E+000	4.80000E-002	8.06743E-004	7	...........	-327.63
	26	0.54	5.12909E-002	1.74265E-008	0.00000E+000	5.20000E-002	8.16743E-004	7	...........	-327.63
	28	0.58	5.52676E-002	1.74890E-008	0.00000E+000	5.60000E-002	7.93410E-004	7	...........	-327.63
	30	0.62	5.92501E-002	1.73474E-008	0.00000E+000	6.00000E-002	8.00076E-004	7	...........	-327.63
	32	0.66	6.31959E-002	1.74224E-008	0.00000E+000	6.40000E-002	8.05076E-004	7	...........	-327.63
	34	0.7	6.70880E-002	1.74765E-008	0.00000E+000	6.80000E-002	7.93410E-004	7	...........	-327.63
	36	0.74	7.10188E-002	1.75974E-008	0.00000E+000	7.20000E-002	7.91743E-004	7	...........	-327.63
	38	0.78	7.49059E-002	1.74640E-008	0.00000E+000	7.60000E-002	8.01743E-004	7	...........	-327.63
	40	0.82	7.86630E-002	1.72932E-008	0.00000E+000	8.00000E-002	8.01743E-004	7	...........	-327.63
	42	0.86	8.25043E-002	1.71599E-008	0.00000E+000	8.40000E-002	7.91743E-004	7	...........	-327.63
	44	0.9	8.64384E-002	1.73807E-008	0.00000E+000	8.80000E-002	8.03410E-004	7	...........	-327.63
	46	0.94	9.03742E-002	1.72599E-008	0.00000E+000	9.20000E-002	8.10076E-004	7	...........	-327.63
	48	0.98	9.44742E-002	1.72974E-008	0.00000E+000	9.60000E-002	7.93410E-004	7	...........	-327.63
	50	1.02	9.85768E-002	1.73932E-008	0.00000E+000	1.00000E-001	8.11743E-004	7	...........	-327.63
	52	1.06	1.02664E-001	1.74682E-008	0.00000E+000	1.04000E-001	7.96743E-004	7	...........	-327.63
	54	1.1	1.06743E-001	1.75807E-008	0.00000E+000	1.08000E-001	7.95076E-004	7	...........	-327.63
	56	1.14	1.10829E-001	1.75515E-008	0.00000E+000	1.12000E-001	7.80076E-004	7	...........	-327.63
	58	1.18	1.14833E-001	1.74890E-008	0.00000E+000	1.16000E-001	7.90076E-004	7	...........	-327.63
	60	1.22	1.18843E-001	1.75099E-008	0.00000E+000	1.20000E-001	7.88410E-004	7	...........	-327.63
	62	1.26	1.22890E-001	1.76015E-008	0.00000E+000	1.24000E-001	8.03410E-004	7	...........	-327.63
	64	1.3	1.26885E-001	1.77390E-008	0.00000E+000	1.28000E-001	7.88410E-004	7	...........	-327.63
	66	1.34	1.30869E-001	1.76182E-008	0.00000E+000	1.32000E-001	8.11743E-004	7	...........	-327.63
	68	1.38	1.34825E-001	1.77390E-008	0.00000E+000	1.36000E-001	7.81743E-004	7	...........	-327.63
	70	1.42	1.38809E-001	1.76890E-008	0.00000E+000	1.40000E-001	8.03410E-004	7	...........	-327.63
	72	1.46	1.42704E-001	1.77640E-008	0.00000E+000	1.44000E-001	7.81743E-004	7	...........	-327.63
	74	1.5	1.46706E-001	1.77890E-008	0.00000E+000	1.48000E-001	7.90076E-004	7	...........	-327.63
	76	1.54	1.50685E-001	1.78182E-008	0.00000E+000	1.52000E-001	7.83410E-004	7	...........	-327.63
	78	1.58	1.54653E-001	1.78432E-008	0.00000E+000	1.56000E-001	8.01743E-004	7	...........	-327.63
	80	1.62	1.58618E-001	1.79099E-008	0.00000E+000	1.60000E-001	8.06743E-004	7	...........	-327.63
	82	1.66	1.62600E-001	1.78974E-008	0.00000E+000	1.64000E-001	7.90076E-004	7	...........	-327.63
	84	1.7	1.66544E-001	1.79266E-008	0.00000E+000	1.68000E-001	8.07576E-004	7	...........	-327.63
	86	1.74	1.70470E-001	1.79099E-008	0.00000E+000	1.72000E-001	8.01743E-004	7	...........	-327.63
	88	1.78	1.74449E-001	1.80224E-008	0.00000E+000	1.76000E-001	8.05076E-004	7	...........	-327.63
	90	1.82	1.78363E-001	1.79016E-008	0.00000E+000	1.80000E-001	7.90076E-004	7	...........	-327.63
	92	1.86	1.82342E-001	1.77515E-008	0.00000E+000	1.84000E-001	7.83410E-004	7	...........	-327.63
	94	1.9	1.86336E-001	1.77224E-008	0.00000E+000	1.88000E-001	7.95076E-004	7	...........	-327.63
	96	1.94	1.90332E-001	1.75724E-008	0.00000E+000	1.92000E-001	7.93410E-004	7	...........	-327.63
	98	1.98	1.94241E-001	1.76849E-008	0.00000E+000	1.96000E-001	7.90076E-004	7	...........	-327.63
	100	2.02	1.98338E-001	1.77015E-008	0.00000E+000	2.00000E-001	8.16743E-004	7	...........	-327.63
	102	2.06	2.02345E-001	1.77724E-008	0.00000E+000	2.04000E-001	7.93410E-004	7	...........	-327.63
	104	2.1	2.06240E-001	1.79141E-008	0.00000E+000	2.08000E-001	7.90076E-004	7	...........	-327.63
	106	2.14	2.10138E-001	1.80349E-008	0.00000E+000	2.12000E-001	8.16743E-004	7	...........	-327.63
	108	2.18	2.14017E-001	1.79182E-008	0.00000E+000	2.16000E-001	8.13410E-004	7	...........	-327.63
	110	2.22	2.17883E-001	1.78641E-008	0.00000E+000	2.20000E-001	7.90076E-004	7	...........	-327.63
	112	2.26	2.21853E-001	1.81016E-008	0.00000E+000	2.24000E-001	7.93410E-004	7	...........	-327.63
	114	2.3	2.25891E-001	1.79766E-008	0.00000E+000	2.28000E-001	7.86743E-004	7	...........	-327.63
	116	2.34	2.29937E-001	1.80849E-008	0.00000E+000	2.32000E-001	7.91743E-004	7	...........	-327.63
	118	2.38	2.33998E-001	1.78641E-008	0.00000E+000	2.36000E-001	7.98410E-004	7	...........	-327.63
	120	2.42	2.38110E-001	1.78599E-008	0.00000E+000	2.40000E-001	8.00076E-004	7	...........	-327.63
	122	2.46	2.42229E-001	1.78807E-008	0.00000E+000	2.44000E-001	7.98410E-004	7	...........	-327.63
	124	2.5	2.46194E-001	1.78974E-008	0.00000E+000	2.48000E-001	7.75076E-004	7	...........	-327.63
	126	2.54	2.50217E-001	1.80807E-008	0.00000E+000	2.52000E-001	7.95076E-004	7	...........	-327.63
	128	2.58	2.54206E-001	1.81807E-008	0.00000E+000	2.56000E-001	8.10076E-004	7	...........	-327.63
	130	2.62	2.58165E-001	1.80682E-008	0.00000E+000	2.60000E-001	7.93410E-004	7	...........	-327.63
	132	2.66	2.62159E-001	1.79724E-008	0.00000E+000	2.64000E-001	7.88410E-004	7	...........	-327.63
	134	2.7	2.66113E-001	1.81682E-008	0.00000E+000	2.68000E-001	7.93410E-004	7	...........	-327.63
	136	2.74	2.69998E-001	1.80432E-008	0.00000E+000	2.72000E-001	7.66743E-004	7	...........	-327.63
	138	2.78	2.74022E-001	1.81891E-008	0.00000E+000	2.76000E-001	7.95076E-004	7	...........	-327.63
	140	2.82	2.78028E-001	1.80432E-008	0.00000E+000	2.80000E-001	7.81743E-004	7	...........	-327.63
	142	2.86	2.82018E-001	1.79849E-008	0.00000E+000	2.84000E-001	8.00076E-004	7	...........	-327.63
	144	2.9	2.86007E-001	1.80766E-008	0.00000E+000	2.88000E-001	8.16743E-004	7	...........	-327.63
	146	2.94	2.89988E-001	1.79932E-008	0.00000E+000	2.92000E-001	8.14243E-004	7	...........	-327.63
	148	2.98	2.93951E-001	1.81224E-008	0.00000E+000	2.96000E-001	7.86743E-004	7	...........	-327.63
	150	3.02	2.97869E-001	1.81182E-008	0.00000E+000	3.00000E-001	7.61743E-004	7	...........	-327.63
	152	3.06	3.01926E-001	1.81016E-008	0.00000E+000	3.04000E-001	8.11743E-004	7	...........	-327.63
	154	3.1	3.05900E-001	1.81141E-008	0.00000E+000	3.08000E-001	7.98410E-004	7	...........	-327.63
	156	3.14	3.09898E-001	1.82432E-008	0.00000E+000	3.12000E-001	8.01743E-004	7	...........	-327.63
	158	3.18	3.13870E-001	1.82057E-008	0.00000E+000	3.16000E-001	8.03410E-004	7	...........	-327.63
	160	3.22	3.17861E-001	1.82266E-008	0.00000E+000	3.20000E-001	7.91743E-004	7	...........	-327.63
	162	3.26	3.21730E-001	1.83016E-008	0.00000E+000	3.24000E-001	7.71743E-004	7	...........	-327.63
	164	3.3	3.25832E-001	1.80599E-008	0.00000E+000	3.28000E-001	7.83410E-004	7	...........	-327.63
	166	3.34	3.29840E-001	1.82099E-008	0.00000E+000	3.32000E-001	8.06743E-004	7	...........	-327.63
	168	3.38	3.33821E-001	1.80599E-008	0.00000E+000	3.36000E-001	8.00076E-004	7	...........	-327.63
	170	3.42	3.37821E-001	1.80099E-008	0.00000E+000	3.40000E-001	8.10076E-004	7	...........	-327.63
	172	3.46	3.41808E-001	1.81682E-008	0.00000E+000	3.44000E-001	8.06743E-004	7	...........	-327.63
	174	3.5	3.45747E-001	1.81266E-008	0.00000E+000	3.48000E-001	8.16743E-004	7	...........	-327.63
	176	3.54	3.49691E-001	1.81391E-008	0.00000E+000	3.52000E-001	8.08410E-004	7	...........	-327.63
	178	3.58	3.53625E-001	1.82724E-008	0.00000E+000	3.56000E-001	8.11743E-004	7	...........	-327.63
	180	3.62	3.57436E-001	1.82349E-008	0.00000E+000	3.60000E-001	8.00076E-004	7	...........	-327.63
	182	3.66	3.61349E-001	1.81432E-008	0.00000E+000	3.64000E-001	7.95076E-004	7	...........	-327.63
	184	3.7	3.65312E-001	1.81682E-008	0.00000E+000	3.68000E-001	7.91743E-004	7	...........	-327.63
	186	3.74	3.69297E-001	1.83141E-008	0.00000E+000	3.72000E-001	8.05076E-004	7	...........	-327.63
	188	3.78	3.73223E-001	1.80724E-008	0.00000E+000	3.76000E-001	7.85076E-004	7	...........	-327.63
	190	3.82	3.77262E-001	1.82974E-008	0.00000E+000	3.80000E-001	7.91743E-004	7	...........	-327.63
	192	3.86	3.81244E-001	1.81932E-008	0.00000E+000	3.84000E-001	7.81743E-004	7	...........	-327.63
	194	3.9	3.85243E-001	1.82724E-008	0.00000E+000	3.88000E-001	7.76743E-004	7	...........	-327.63
	196	3.94	3.89274E-001	1.82432E-008	0.00000E+000	3.92000E-001	8.11743E-004	7	...........	-327.63
	198	3.98	3.93287E-001	1.82641E-008	0.00000E+000	3.96000E-001	7.76743E-004	7	...........	-327.63
	200	4.02	3.97254E-001	1.79891E-008	0.00000E+000	4.00000E-001	8.10076E-004	7	...........	-327.63
	202	4.06	4.01252E-001	1.79016E-008	0.00000E+000	4.04000E-001	7.95076E-004	7	...........	-327.63
	204	4.1	4.05574E-001	1.77099E-008	0.00000E+000	4.08000E-001	8.01743E-004	7	...........	-327.63
	206	4.14	4.09669E-001	1.80307E-008	0.00000E+000	4.12000E-001	7.83410E-004	7	...........	-327.63
	208	4.18	4.13506E-001	1.81557E-008	0.00000E+000	4.16000E-001	7.93410E-004	7	...........	-327.63
	210	4.22	4.17329E-001	1.83016E-008	0.00000E+000	4.20000E-001	8.00076E-004	7	...........	-327.63
	212	4.26	4.21294E-001	1.81516E-008	0.00000E+000	4.24000E-001	7.81743E-004	7	...........	-327.63
	214	4.3	4.25233E-001	1.82057E-008	0.00000E+000	4.28000E-001	7.95076E-004	7	...........	-327.63
	216	4.34	4.29230E-001	1.81182E-008	0.00000E+000	4.32000E-001	7.86743E-004	7	...........	-327.63
	218	4.38	4.33203E-001	1.83099E-008	0.00000E+000	4.36000E-001	8.05076E-004	7	...........	-327.63
	220	4.42	4.37203E-001	1.81307E-008	0.00000E+000	4.40000E-001	7.91743E-004	7	...........	-327.63
	222	4.46	4.41210E-001	1.82141E-008	0.00000E+000	4.44000E-001	7.88410E-004	7	...........	-327.63
	224	4.5	4.45213E-001	1.79307E-008	0.00000E+000	4.48000E-001	8.00076E-004	7	...........	-327.63
	226	4.54	4.49126E-001	1.81057E-008	0.00000E+000	4.52000E-001	8.01743E-004	7	...........	-327.63
	228	4.58	4.53243E-001	1.79932E-008	0.00000E+000	4.56000E-001	7.73410E-004	7	...........	-327.63
	230	4.62	4.57579E-001	1.81474E-008	0.00000E+000	4.60000E-001	8.06743E-004	7	...........	-327.63
	232	4.66	4.61531E-001	1.82057E-008	0.00000E+000	4.64000E-001	8.11743E-004	7	...........	-327.63
	234	4.7	4.65362E-001	1.83182E-008	0.00000E+000	4.68000E-001	7.95076E-004	7	...........	-327.63
	236	4.74	4.69261E-001	1.79682E-008	0.00000E+000	4.72000E-001	7.96743E-004	7	...........	-327.63
	238	4.78	4.73206E-001	1.80724E-008	0.00000E+000	4.76000E-001	7.98410E-004	7	...........	-327.63
	240	4.82	4.77143E-001	1.78599E-008	0.00000E+000	4.80000E-001	8.03410E-004	7	...........	-327.63
	242	4.86	4.81153E-001	1.82807E-008	0.00000E+000	4.84000E-001	8.25076E-004	7	...........	-327.63
	244	4.9	4.85144E-001	1.81266E-008	0.00000E+000	4.88000E-001	8.06743E-004	7	...........	-327.63
	246	4.94	4.89136E-001	1.80724E-008	0.00000E+000	4.92000E-001	8.23410E-004	7	...........	-327.63
	248	4.98	4.93141E-001	1.81016E-008	0.00000E+000	4.96000E-001	8.03410E-004	7	...........	-327.63
	250	5.02	4.97154E-001	1.81766E-008	0.00000E+000	5.00000E-001	8.06743E-004	7	...........	-327.63
	252	5.06	4.93216E-001	1.79307E-008	0.00000E+000	4.96000E-001	7.96743E-004	7	...........	-327.63
	254	5.1	4.89466E-001	1.77682E-008	0.00000E+000	4.92000E-001	8.08410E-004	7	...........	-327.63
	256	5.14	4.85501E-001	1.81766E-008	0.00000E+000	4.88000E-001	7.96743E-004	7	...........	-327.63
	258	5.18	4.81358E-001	1.82057E-008	0.00000E+000	4.84000E-001	7.90076E-004	7	...........	-327.63
	260	5.22	4.77212E-001	1.81182E-008	0.00000E+000	4.80000E-001	7.93410E-004	7	...........	-327.63
	262	5.26	4.73228E-001	1.83016E-008	0.00000E+000	4.76000E-001	8.03410E-004	7	...........	-327.63
	264	5.3	4.69218E-001	1.81141E-008	0.00000E+000	4.72000E-001	8.11743E-004	7	...........	-327.63
	266	5.34	4.65184E-001	1.81391E-008	0.00000E+000	4.68000E-001	8.03410E-004	7	...........	-327.63
	268	5.38	4.61197E-001	1.81307E-008	0.00000E+000	4.64000E-001	8.08410E-004	7	...........	-327.63
	270	5.42	4.57211E-001	1.80266E-008	0.00000E+000	4.60000E-001	8.03410E-004	7	...........	-327.63
	272	5.46	4.53189E-001	1.80057E-008	0.00000E+000	4.56000E-001	8.05076E-004	7	...........	-327.63
	274	5.5	4.49165E-001	1.80016E-008	0.00000E+000	4.52000E-001	8.05076E-004	7	...........	-327.63
	276	5.54	4.45267E-001	1.78474E-008	0.00000E+000	4.48000E-001	7.88410E-004	7	...........	-327.63
	278	5.58	4.41408E-001	1.79224E-008	0.00000E+000	4.44000E-001	7.86743E-004	7	...........	-327.63
	280	5.62	4.37531E-001	1.80224E-008	0.00000E+000	4.40000E-001	7.63410E-004	7	...........	-327.63
	282	5.66	4.33476E-001	1.82724E-008	0.00000E+000	4.36000E-001	7.78410E-004	7	...........	-327.63
	284	5.7	4.29333E-001	1.79474E-008	0.00000E+000	4.32000E-001	8.03410E-004	7	...........	-327.63
	286	5.74	4.25281E-001	1.79974E-008	0.00000E+000	4.28000E-001	8.11743E-004	7	...........	-327.63
	288	5.78	4.21277E-001	1.78349E-008	0.00000E+000	4.24000E-001	7.88410E-004	7	...........	-327.63
	290	5.82	4.17273E-001	1.77724E-008	0.00000E+000	4.20000E-001	7.93410E-004	7	...........	-327.63
	292	5.86	4.13263E-001	1.74807E-008	0.00000E+000	4.16000E-001	7.93410E-004	7	...........	-327.63
	294	5.9	4.09288E-001	1.79349E-008	0.00000E+000	4.12000E-001	8.15076E-004	7	...........	-327.63
	296	5.94	4.05293E-001	1.77765E-008	0.00000E+000	4.08000E-001	8.05076E-004	7	...........	-327.63
	298	5.98	4.01276E-001	1.78224E-008	0.00000E+000	4.04000E-001	8.10076E-004	7	...........	-327.63
	300	6.02	3.97312E-001	1.76765E-008	0.00000E+000	4.00000E-001	8.05076E-004	7	...........	-327.63
	302	6.06	3.93584E-001	1.74849E-008	0.00000E+000	3.96000E-001	7.95076E-004	7	...........	-327.63
	304	6.1	3.89620E-001	1.76599E-008	0.00000E+000	3.92000E-001	7.95076E-004	7	...........	-327.63
	306	6.14	3.85533E-001	1.79099E-008	0.00000E+000	3.88000E-001	8.21743E-004	7	...........	-327.63
	308	6.18	3.81440E-001	1.76932E-008	0.00000E+000	3.84000E-001	8.10076E-004	7	...........	-327.63
	310	6.22	3.77378E-001	1.77390E-008	0.00000E+000	3.80000E-001	7.95076E-004	7	...........	-327.63
	312	6.26	3.73325E-001	1.76890E-008	0.00000E+000	3.76000E-001	8.06743E-004	7	...........	-327.63
	314	6.3	3.69395E-001	1.76224E-008	0.00000E+000	3.72000E-001	7.91743E-004	7	...........	-327.63
	316	6.34	3.65370E-001	1.75390E-008	0.00000E+000	3.68000E-001	7.93410E-004	7	...........	-327.63
	318	6.38	3.61369E-001	1.77390E-008	0.00000E+000	3.64000E-001	8.11743E-004	7	...........	-327.63
	320	6.42	3.57414E-001	1.76057E-008	0.00000E+000	3.60000E-001	7.93410E-004	7	...........	-327.63
	322	6.46	3.53428E-001	1.76057E-008	0.00000E+000	3.56000E-001	8.18410E-004	7	...........	-327.63
	324	6.5	3.49552E-001	1.75307E-008	0.00000E+000	3.52000E-001	8.08410E-004	7	...........	-327.63
	326	6.54	3.45623E-001	1.78140E-008	0.00000E+000	3.48000E-001	7.85076E-004	7	...........	-327.63
	328	6.58	3.41590E-001	1.78724E-008	0.00000E+000	3.44000E-001	7.85076E-004	7	...........	-327.63
	330	6.62	3.37503E-001	1.77974E-008	0.00000E+000	3.40000E-001	8.18410E-004	7	...........	-327.63
	332	6.66	3.33439E-001	1.79474E-008	0.00000E+000	3.36000E-001	7.93410E-004	7	...........	-327.63
	334	6.7	3.29448E-001	1.78641E-008	0.00000E+000	3.32000E-001	8.03410E-004	7	...........	-327.63
	336	6.74	3.25436E-001	1.78057E-008	0.00000E+000	3.28000E-001	7.92576E-004	7	...........	-327.63
	338	6.78	3.21373E-001	1.76974E-008	0.00000E+000	3.24000E-001	8.11743E-004	7	...........	-327.63
	340	6.82	3.17461E-001	1.78932E-008	0.00000E+000	3.20000E-001	7.96743E-004	7	...........	-327.63
	342	6.86	3.13449E-001	1.78140E-008	0.00000E+000	3.16000E-001	8.01743E-004	7	...........	-327.63
	344	6.9	3.09467E-001	1.76057E-008	0.00000E+000	3.12000E-001	8.20076E-004	7	...........	-327.63
	346	6.94	3.05490E-001	1.77682E-008	0.00000E+000	3.08000E-001	8.06743E-004	7	...........	-327.63
	348	6.98	3.01505E-001	1.78349E-008	0.00000E+000	3.04000E-001	7.91743E-004	7	...........	-327.63
	350	7.02	2.97493E-001	1.76724E-008	0.00000E+000	3.00000E-001	7.80076E-004	7	...........	-327.63
	352	7.06	2.93711E-001	1.77974E-008	0.00000E+000	2.96000E-001	8.15076E-004	7	...........	-327.63
	354	7.1	2.89720E-001	1.78849E-008	0.00000E+000	2.92000E-001	7.88410E-004	7	...........	-327.63
	356	7.14	2.85733E-001	1.77557E-008	0.00000E+000	2.88000E-001	7.93410E-004	7	...........	-327.63
	358	7.18	2.81733E-001	1.77015E-008	0.00000E+000	2.84000E-001	8.16743E-004	7	...........	-327.63
	360	7.22	2.77738E-001	1.77015E-008	0.00000E+000	2.80000E-001	8.00076E-004	7	...........	-327.63
	362	7.26	2.73711E-001	1.77640E-008	0.00000E+000	2.76000E-001	8.03410E-004	7	...........	-327.63
	364	7.3	2.69675E-001	1.77390E-008	0.00000E+000	2.72000E-001	7.86743E-004	7	...........	-327.63
	366	7.34	2.65753E-001	1.80099E-008	0.00000E+000	2.68000E-001	8.06743E-004	7	...........	-327.63
	368	7.38	2.61748E-001	1.77724E-008	0.00000E+000	2.64000E-001	7.80076E-004	7	...........	-327.63
	370	7.42	2.57734E-001	1.78432E-008	0.00000E+000	2.60000E-001	8.01743E-004	7	...........	-327.63
	372	7.46	2.53768E-001	1.78515E-008	0.00000E+000	2.56000E-001	7.95076E-004	7	...........	-327.63
	374	7.5	2.49758E-001	1.77099E-008	0.00000E+000	2.52000E-001	8.01743E-004	7	...........	-327.63
	376	7.54	2.45711E-001	1.77640E-008	0.00000E+000	2.48000E-001	8.01743E-004	7	...........	-327.63
	378	7.58	2.41803E-001	1.77015E-008	0.00000E+000	2.44000E-001	7.83410E-004	7	...........	-327.63
	380	7.62	2.37818E-001	1.78015E-008	0.00000E+000	2.40000E-001	8.18410E-004	7	...........	-327.63
	382	7.66	2.33829E-001	1.78099E-008	0.00000E+000	2.36000E-001	8.11743E-004	7	...........	-327.63
	384	7.7	2.29820E-001	1.76557E-008	0.00000E+000	2.32000E-001	8.06743E-004	7	...........	-327.63
	386	7.74	2.25811E-001	1.77599E-008	0.00000E+000	2.28000E-001	8.21743E-004	7	...........	-327.63
	388	7.78	2.21801E-001	1.78182E-008	0.00000E+000	2.24000E-001	7.93410E-004	7	...........	-327.63
	390	7.82	2.17765E-001	1.78182E-008	0.00000E+000	2.20000E-001	7.90076E-004	7	...........	-327.63
	392	7.86	2.13817E-001	1.76807E-008	0.00000E+000	2.16000E-001	7.98410E-004	7	...........	-327.63
	394	7.9	2.09745E-001	1.77265E-008	0.00000E+000	2.12000E-001	8.11743E-004	7	...........	-327.63
	396	7.94	2.05689E-001	1.74765E-008	0.00000E+000	2.08000E-001	8.01743E-004	7	...........	-327.63
	398	7.98	2.01668E-001	1.75807E-008	0.00000E+000	2.04000E-001	7.95076E-004	7	...........	-327.63
	400	8.02	1.97593E-001	1.74724E-008	0.00000E+000	2.00000E-001	8.18410E-004	7	...........	-327.63
	402	8.06	1.93522E-001	1.75140E-008	0.00000E+000	1.96000E-001	7.98410E-004	7	...........	-327.63
	404	8.1	1.89591E-001	1.77224E-008	0.00000E+000	1.92000E-001	7.98410E-004	7	...........	-327.63
	406	8.14	1.85597E-001	1.77224E-008	0.00000E+000	1.88000E-001	8.10076E-004	7	...........	-327.63
	408	8.18	1.81594E-001	1.75265E-008	0.00000E+000	1.84000E-001	7.96743E-004	7	...........	-327.63
	410	8.22	1.77579E-001	1.76265E-008	0.00000E+000	1.80000E-001	8.10076E-004	7	...........	-327.63
	412	8.26	1.73572E-001	1.75265E-008	0.00000E+000	1.76000E-001	7.96743E-004	7	...........	-327.63
	414	8.3	1.69552E-001	1.75432E-008	0.00000E+000	1.72000E-001	7.81743E-004	7	...........	-327.63
	416	8.34	1.65586E-001	1.77265E-008	0.00000E+000	1.68000E-001	8.11743E-004	7	...........	-327.63
	418	8.38	1.61591E-001	1.75765E-008	0.00000E+000	1.64000E-001	7.93410E-004	7	...........	-327.63
	420	8.42	1.57605E-001	1.74765E-008	0.00000E+000	1.60000E-001	7.83410E-004	7	...........	-327.63
	422	8.46	1.53651E-001	1.73474E-008	0.00000E+000	1.56000E-001	7.88410E-004	7	...........	-327.63
	424	8.5	1.49813E-001	1.71557E-008	0.00000E+000	1.52000E-001	8.20076E-004	7	...........	-327.63
	426	8.54	1.45709E-001	1.74307E-008	0.00000E+000	1.48000E-001	8.06743E-004	7	...........	-327.63
	428	8.58	1.41653E-001	1.74182E-008	0.00000E+000	1.44000E-001	8.06743E-004	7	...........	-327.63
	430	8.62	1.37759E-001	1.73349E-008	0.00000E+000	1.40000E-001	8.08410E-004	7	...........	-327.63
	432	8.66	1.33762E-001	1.72974E-008	0.00000E+000	1.36000E-001	8.15076E-004	7	...........	-327.63
	434	8.7	1.29819E-001	1.73265E-008	0.00000E+000	1.32000E-001	8.03410E-004	7	...........	-327.63
	436	8.74	1.26023E-001	1.73974E-008	0.00000E+000	1.28000E-001	8.11743E-004	7	...........	-327.63
	438	8.78	1.21989E-001	1.73057E-008	0.00000E+000	1.24000E-001	8.05910E-004	7	...........	-327.63
	440	8.82	1.17951E-001	1.76015E-008	0.00000E+000	1.20000E-001	8.13410E-004	7	...........	-327.63
	442	8.86	1.14051E-001	1.74765E-008	0.00000E+000	1.16000E-001	8.11743E-004	7	...........	-327.63
	444	8.9	1.10166E-001	1.74599E-008	0.00000E+000	1.12000E-001	7.91743E-004	7	...........	-327.63
	446	8.94	1.06049E-001	1.73349E-008	0.00000E+000	1.08000E-001	7.98410E-004	7	...........	-327.63
	448	8.98	1.02081E-001	1.73099E-008	0.00000E+000	1.04000E-001	7.90910E-004	7	...........	-327.63
	450	9.02	9.80901E-002	1.73307E-008	0.00000E+000	1.00000E-001	8.06743E-004	7	...........	-327.63
	452	9.06	9.40338E-002	1.73099E-008	0.00000E+000	9.60000E-002	7.87576E-004	7	...........	-327.63
	454	9.1	9.00147E-002	1.73432E-008	0.00000E+000	9.20000E-002	8.05076E-004	7	...........	-327.63
	456	9.14	8.60568E-002	1.73390E-008	0.00000E+000	8.80000E-002	8.01743E-004	7	...........	-327.63
	458	9.18	8.20592E-002	1.72307E-008	0.00000E+000	8.40000E-002	8.01743E-004	7	...........	-327.63
	460	9.22	7.80443E-002	1.73390E-008	0.00000E+000	8.00000E-002	8.13410E-004	7	...........	-327.63
	462	9.26	7.40605E-002	1.72099E-008	0.00000E+000	7.60000E-002	8.03410E-004	7	...........	-327.63
	464	9.3	7.00309E-002	1.73474E-008	0.00000E+000	7.20000E-002	7.96743E-004	7	...........	-327.63
	466	9.34	6.59901E-002	1.72557E-008	0.00000E+000	6.80000E-002	7.91743E-004	7	...........	-327.63
	468	9.38	6.20626E-002	1.72807E-008	0.00000E+000	6.40000E-002	7.93410E-004	7	...........	-327.63
	470	9.42	5.80668E-002	1.71640E-008	0.00000E+000	6.00000E-002	8.03410E-004	7	...........	-327.63
	472	9.46	5.40580E-002	1.73140E-008	0.00000E+000	5.60000E-002	7.90076E-004	7	...........	-327.63
	474	9.5	5.00872E-002	1.71474E-008	0.00000E+000	5.20000E-002	7.83410E-004	7	...........	-327.63
	476	9.54	4.60622E-002	1.72974E-008	0.00000E+000	4.80000E-002	8.13410E-004	7	...........	-327.63
	478	9.58	4.20426E-002	1.71724E-008	0.00000E+000	4.40000E-002	7.91743E-004	7	...........	-327.63
	480	9.62	3.80738E-002	1.70682E-008	0.00000E+000	4.00000E-002	7.88410E-004	7	...........	-327.63
	482	9.66	3.40822E-002	1.71224E-008	0.00000E+000	3.60000E-002	8.05076E-004	7	...........	-327.63
	484	9.7	3.00880E-002	1.72349E-008	0.00000E+000	3.20000E-002	7.80076E-004	7	...........	-327.63
	486	9.74	2.60934E-002	1.72099E-008	0.00000E+000	2.80000E-002	8.05076E-004	7	...........	-327.63
	488	9.78	2.20859E-002	1.69974E-008	0.00000E+000	2.40000E-002	8.11743E-004	7	...........	-327.63
	490	9.82	1.80713E-002	1.71015E-008	0.00000E+000	2.00000E-002	7.95076E-004	7	...........	-327.63
	492	9.86	1.39943E-002	1.71890E-008	0.00000E+000	1.60000E-002	7.93410E-004	7	...........	-327.63
	494	9.9	1.01005E-002	1.71724E-008	0.00000E+000	1.20000E-002	7.83410E-004	7	...........	-327.63
	496	9.94	6.09259E-003	1.72140E-008	0.00000E+000	8.00000E-003	8.06743E-004	7	...........	-327.63
	498	9.98	2.09092E-003	1.70307E-008	0.00000E+000	4.00000E-003	8.08410E-004	7	...........	-327.63
	500	10.02	-1.91533E-003	1.69348E-008	0.00000E+000	0.00000E+000	7.83410E-004	7	...........	-327.63
	502	10.06	-5.93074E-003	1.69515E-008	0.00000E+000	-4.00000E-003	7.98410E-004	7	...........	-327.63
	504	10.1	-1.00020E-002	1.70265E-008	0.00000E+000	-8.00000E-003	7.80076E-004	7	...........	-327.63
	506	10.14	-1.39187E-002	1.68390E-008	0.00000E+000	-1.20000E-002	8.16743E-004	7	...........	-327.63
	508	10.18	-1.78987E-002	1.69724E-008	0.00000E+000	-1.60000E-002	8.18410E-004	7	...........	-327.63
	510	10.22	-2.19032E-002	1.69557E-008	0.00000E+000	-2.00000E-002	7.96743E-004	7	...........	-327.63
	512	10.26	-2.59078E-002	1.71474E-008	0.00000E+000	-2.40000E-002	8.13410E-004	7	...........	-327.63
	514	10.3	-2.99082E-002	1.69640E-008	0.00000E+000	-2.80000E-002	7.78410E-004	7	...........	-327.63
	516	10.34	-3.39532E-002	1.69640E-008	0.00000E+000	-3.20000E-002	7.80076E-004	7	...........	-327.63
	518	10.38	-3.79178E-002	1.69807E-008	0.00000E+000	-3.60000E-002	7.98410E-004	7	...........	-327.63
	520	10.42	-4.18895E-002	1.69640E-008	0.00000E+000	-4.00000E-002	7.88410E-004	7	...........	-327.63
	522	10.46	-4.58874E-002	1.70140E-008	0.00000E+000	-4.40000E-002	7.93410E-004	7	...........	-327.63
	524	10.5	-4.99032E-002	1.70015E-008	0.00000E+000	-4.80000E-002	8.06743E-004	7	...........	-327.63
	526	10.54	-5.38957E-002	1.69015E-008	0.00000E+000	-5.20000E-002	8.00076E-004	7	...........	-327.63
	528	10.58	-5.79028E-002	1.70099E-008	0.00000E+000	-5.60000E-002	7.86743E-004	7	...........	-327.63
	530	10.62	-6.19432E-002	1.72932E-008	0.00000E+000	-6.00000E-002	7.64243E-004	7	...........	-327.63
	532	10.66	-6.58695E-002	1.69307E-008	0.00000E+000	-6.40000E-002	7.95076E-004	7	...........	-327.63
	534	10.7	-6.98516E-002	1.71265E-008	0.00000E+000	-6.80000E-002	8.06743E-004	7	...........	-327.63
	536	10.74	-7.38541E-002	1.70265E-008	0.00000E+000	-7.20000E-002	8.16743E-004	7	...........	-327.63
	538	10.78	-7.78474E-002	1.70140E-008	0.00000E+000	-7.60000E-002	8.23410E-004	7	...........	-327.63
	540	10.82	-8.18687E-002	1.71974E-008	0.00000E+000	-8.00000E-002	7.98410E-004	7	...........	-327.63
	542	10.86	-8.58970E-002	1.72390E-008	0.00000E+000	-8.40000E-002	8.03410E-004	7	...........	-327.63
	544	10.9	-8.98595E-002	1.71599E-008	0.00000E+000	-8.80000E-002	8.10076E-004	7	...........	-327.63
	546	10.94	-9.38532E-002	1.69932E-008	0.00000E+000	-9.20000E-002	8.11743E-004	7	...........	-327.63
	548	10.98	-9.78337E-002	1.71849E-008	0.00000E+000	-9.60000E-002	7.88410E-004	7	...........	-327.63
	550	11.02	-1.01844E-001	1.70724E-008	0.00000E+000	-1.00000E-001	8.10076E-004	7	...........	-327.63
	552	11.06	-1.05807E-001	1.70140E-008	0.00000E+000	-1.04000E-001	7.81743E-004	7	...........	-327.63
	554	11.1	-1.09841E-001	1.70932E-008	0.00000E+000	-1.08000E-001	7.93410E-004	7	...........	-327.63
	556	11.14	-1.13887E-001	1.71432E-008	0.00000E+000	-1.12000E-001	7.96743E-004	7	...........	-327.63
	558	11.18	-1.17819E-001	1.70057E-008	0.00000E+000	-1.16000E-001	8.30076E-004	7	...........	-327.63
	560	11.22	-1.21802E-001	1.71015E-008	0.00000E+000	-1.20000E-001	7.98410E-004	7	...........	-327.63
	562	11.26	-1.25802E-001	1.71265E-008	0.00000E+000	-1.24000E-001	7.75076E-004	7	...........	-327.63
	564	11.3	-1.29807E-001	1.69765E-008	0.00000E+000	-1.28000E-001	8.05076E-004	7	...........	-327.63
	566	11.34	-1.33804E-001	1.69640E-008	0.00000E+000	-1.32000E-001	8.00076E-004	7	...........	-327.63
	568	11.38	-1.37864E-001	1.69515E-008	0.00000E+000	-1.36000E-001	7.61743E-004	7	...........	-327.63
	570	11.42	-1.41782E-001	1.70390E-008	0.00000E+000	-1.40000E-001	8.05076E-004	7	...........	-327.63
	572	11.46	-1.45769E-001	1.69182E-008	0.00000E+000	-1.44000E-001	7.80076E-004	7	...........	-327.63
	574	11.5	-1.49781E-001	1.70057E-008	0.00000E+000	-1.48000E-001	8.01743E-004	7	...........	-327.63
	576	11.54	-1.53764E-001	1.70807E-008	0.00000E+000	-1.52000E-001	8.11743E-004	7	...........	-327.63
	578	11.58	-1.57783E-001	1.69307E-008	0.00000E+000	-1.56000E-001	8.01743E-004	7	...........	-327.63
	580	11.62	-1.61814E-001	1.70724E-008	0.00000E+000	-1.60000E-001	7.91743E-004	7	...........	-327.63
	582	11.66	-1.65801E-001	1.69640E-008	0.00000E+000	-1.64000E-001	8.10076E-004	7	...........	-327.63
	584	11.7	-1.69748E-001	1.68807E-008	0.00000E+000	-1.68000E-001	7.95076E-004	7	...........	-327.63
	586	11.74	-1.73740E-001	1.68682E-008	0.00000E+000	-1.72000E-001	8.01743E-004	7	...........	-327.63
	588	11.78	-1.77760E-001	1.68390E-008	0.00000E+000	-1.76000E-001	8.20076E-004	7	...........	-327.63
	590	11.82	-1.81752E-001	1.68390E-008	0.00000E+000	-1.80000E-001	8.06743E-004	7	...........	-327.63
	592	11.86	-1.85771E-001	1.70640E-008	0.00000E+000	-1.84000E-001	7.96743E-004	7	...........	-327.63
	594	11.9	-1.89805E-001	1.70557E-008	0.00000E+000	-1.88000E-001	7.71743E-004	7	...........	-327.63
	596	11.94	-1.93736E-001	1.69223E-008	0.00000E+000	-1.92000E-001	7.86743E-004	7	...........	-327.63
	598	11.98	-1.97730E-001	1.70349E-008	0.00000E+000	-1.96000E-001	8.03410E-004	7	...........	-327.63
	600	12.02	-2.01760E-001	1.70390E-008	0.00000E+000	-2.00000E-001	7.76743E-004	7	...........	-327.63
	602	12.06	-2.05711E-001	1.68515E-008	0.00000E+000	-2.04000E-001	8.01743E-004	7	...........	-327.63
	604	12.1	-2.09722E-001	1.69890E-008	0.00000E+000	-2.08000E-001	8.15076E-004	7	...........	-327.63
	606	12.14	-2.13794E-001	1.69515E-008	0.00000E+000	-2.12000E-001	7.95076E-004	7	...........	-327.63
	608	12.18	-2.17714E-001	1.70099E-008	0.00000E+000	-2.16000E-001	8.23410E-004	7	...........	-327.63
	610	12.22	-2.21718E-001	1.70057E-008	0.00000E+000	-2.20000E-001	7.85076E-004	7	...........	-327.63
	612	12.26	-2.25717E-001	1.72599E-008	0.00000E+000	-2.24000E-001	8.00076E-004	7	...........	-327.63
	614	12.3	-2.29710E-001	1.72849E-008	0.00000E+000	-2.28000E-001	7.98410E-004	7	...........	-327.63
	616	12.34	-2.33735E-001	1.72224E-008	0.00000E+000	-2.32000E-001	8.05910E-004	7	...........	-327.63
	618	12.38	-2.37729E-001	1.71974E-008	0.00000E+000	-2.36000E-001	8.13410E-004	7	...........	-327.63
	620	12.42	-2.41795E-001	1.70432E-008	0.00000E+000	-2.40000E-001	7.81743E-004	7	...........	-327.63
	622	12.46	-2.45680E-001	1.72265E-008	0.00000E+000	-2.44000E-001	8.06743E-004	7	...........	-327.63
	624	12.5	-2.49698E-001	1.72599E-008	0.00000E+000	-2.48000E-001	7.93410E-004	7	...........	-327.63
	626	12.54	-2.53695E-001	1.72724E-008	0.00000E+000	-2.52000E-001	8.08410E-004	7	...........	-327.63
	628	12.58	-2.57684E-001	1.73640E-008	0.00000E+000	-2.56000E-001	8.10076E-004	7	...........	-327.63
	630	12.62	-2.61692E-001	1.73724E-008	0.00000E+000	-2.60000E-001	8.21743E-004	7	...........	-327.63
	632	12.66	-2.65740E-001	1.73265E-008	0.00000E+000	-2.64000E-001	7.75076E-004	7	...........	-327.63
	634	12.7	-2.69683E-001	1.73265E-008	0.00000E+000	-2.68000E-001	7.95076E-004	7	...........	-327.63
	636	12.74	-2.73659E-001	1.72974E-008	0.00000E+000	-2.72000E-001	7.83410E-004	7	...........	-327.63
	638	12.78	-2.77664E-001	1.72015E-008	0.00000E+000	-2.76000E-001	7.96743E-004	7	...........	-327.63
	640	12.82	-2.81657E-001	1.74015E-008	0.00000E+000	-2.80000E-001	8.06743E-004	7	...........	-327.63
	642	12.86	-2.85663E-001	1.74849E-008	0.00000E+000	-2.84000E-001	8.11743E-004	7	...........	-327.63
	644	12.9	-2.89696E-001	1.75057E-008	0.00000E+000	-2.88000E-001	7.99243E-004	7	...........	-327.63
	646	12.94	-2.93700E-001	1.73557E-008	0.00000E+000	-2.92000E-001	7.91743E-004	7	...........	-327.63
	648	12.98	-2.97649E-001	1.72765E-008	0.00000E+000	-2.96000E-001	8.11743E-004	7	...........	-327.63
	650	13.02	-3.01643E-001	1.71265E-008	0.00000E+000	-3.00000E-001	8.10076E-004	7	...........	-327.63
	652	13.06	-3.05662E-001	1.72682E-008	0.00000E+000	-3.04000E-001	7.96743E-004	7	...........	-327.63
	654	13.1	-3.09633E-001	1.72099E-008	0.00000E+000	-3.08000E-001	8.20076E-004	7	...........	-327.63
	656	13.14	-3.13642E-001	1.72724E-008	0.00000E+000	-3.12000E-001	7.93410E-004	7	...........	-327.63
	658	13.18	-3.17697E-001	1.72307E-008	0.00000E+000	-3.16000E-001	7.90076E-004	7	...........	-327.63
	660	13.22	-3.21624E-001	1.74307E-008	0.00000E+000	-3.20000E-001	7.93410E-004	7	...........	-327.63
	662	13.26	-3.25635E-001	1.75224E-008	0.00000E+000	-3.24000E-001	8.03410E-004	7	...........	-327.63
	664	13.3	-3.29618E-001	1.76599E-008	0.00000E+000	-3.28000E-001	7.91743E-004	7	...........	-327.63
	666	13.34	-3.33612E-001	1.74765E-008	0.00000E+000	-3.32000E-001	7.85076E-004	7	...........	-327.63
	668	13.38	-3.37631E-001	1.76974E-008	0.00000E+000	-3.36000E-001	8.11743E-004	7	...........	-327.63
	670	13.42	-3.41647E-001	1.74974E-008	0.00000E+000	-3.40000E-001	8.01743E-004	7	...........	-327.63
	672	13.46	-3.45627E-001	1.77182E-008	0.00000E+000	-3.44000E-001	8.01743E-004	7	...........	-327.63
	674	13.5	-3.49610E-001	1.76265E-008	0.00000E+000	-3.48000E-001	8.28410E-004	7	...........	-327.63
	676	13.54	-3.53605E-001	1.76724E-008	0.00000E+000	-3.52000E-001	7.93410E-004	7	...........	-327.63
	678	13.58	-3.57629E-001	1.77307E-008	0.00000E+000	-3.56000E-001	7.91743E-004	7	...........	-327.63
	680	13.62	-3.61598E-001	1.77265E-008	0.00000E+000	-3.60000E-001	7.93410E-004	7	...........	-327.63
	682	13.66	-3.65629E-001	1.76765E-008	0.00000E+000	-3.64000E-001	7.85076E-004	7	...........	-327.63
	684	13.7	-3.69693E-001	1.78390E-008	0.00000E+000	-3.68000E-001	7.78410E-004	7	...........	-327.63
	686	13.74	-3.73581E-001	1.76599E-008	0.00000E+000	-3.72000E-001	8.05076E-004	7	...........	-327.63
	688	13.78	-3.77579E-001	1.77057E-008	0.00000E+000	-3.76000E-001	7.68410E-004	7	...........	-327.63
	690	13.82	-3.81582E-001	1.80099E-008	0.00000E+000	-3.80000E-001	8.05076E-004	7	...........	-327.63
	692	13.86	-3.85554E-001	1.77474E-008	0.00000E+000	-3.84000E-001	8.08410E-004	7	...........	-327.63
	694	13.9	-3.89563E-001	1.77765E-008	0.00000E+000	-3.88000E-001	8.08410E-004	7	...........	-327.63
	696	13.94	-3.93618E-001	1.78265E-008	0.00000E+000	-3.92000E-001	7.85076E-004	7	...........	-327.63
	698	13.98	-3.97557E-001	1.78515E-008	0.00000E+000	-3.96000E-001	8.20076E-004	7	...........	-327.63
	700	14.02	-4.01562E-001	1.75640E-008	0.00000E+000	-4.00000E-001	7.90076E-004	7	...........	-327.63
	702	14.06	-4.05561E-001	1.77807E-008	0.00000E+000	-4.04000E-001	8.11743E-004	7	...........	-327.63
	704	14.1	-4.09563E-001	1.76682E-008	0.00000E+000	-4.08000E-001	7.95076E-004	7	...........	-327.63
	706	14.14	-4.13557E-001	1.77015E-008	0.00000E+000	-4.12000E-001	8.18410E-004	7	...........	-327.63
	708	14.18	-4.17588E-001	1.75474E-008	0.00000E+000	-4.16000E-001	8.11743E-004	7	...........	-327.63
	710	14.22	-4.21618E-001	1.77140E-008	0.00000E+000	-4.20000E-001	8.08410E-004	7	...........	-327.63
	712	14.26	-4.25528E-001	1.75765E-008	0.00000E+000	-4.24000E-001	8.05076E-004	7	...........	-327.63
	714	14.3	-4.29537E-001	1.76224E-008	0.00000E+000	-4.28000E-001	7.91743E-004	7	...........	-327.63
	716	14.34	-4.33539E-001	1.76557E-008	0.00000E+000	-4.32000E-001	7.96743E-004	7	...........	-327.63
	718	14.38	-4.37522E-001	1.77099E-008	0.00000E+000	-4.36000E-001	8.13410E-004	7	...........	-327.63
	720	14.42	-4.41540E-001	1.77557E-008	0.00000E+000	-4.40000E-001	7.93410E-004	7	...........	-327.63
	722	14.46	-4.45623E-001	1.77474E-008	0.00000E+000	-4.44000E-001	8.15076E-004	7	...........	-327.63
	724	14.5	-4.49505E-001	1.76307E-008	0.00000E+000	-4.48000E-001	7.89243E-004	7	...........	-327.63
	726	14.54	-4.53515E-001	1.75932E-008	0.00000E+000	-4.52000E-001	8.13410E-004	7	...........	-327.63
	728	14.58	-4.57523E-001	1.75140E-008	0.00000E+000	-4.56000E-001	8.05076E-004	7	...........	-327.63
	730	14.62	-4.61494E-001	1.76182E-008	0.00000E+000	-4.60000E-001	8.25076E-004	7	...........	-327.63
	732	14.66	-4.65517E-001	1.77265E-008	0.00000E+000	-4.64000E-001	8.13410E-004	7	...........	-327.63
	734	14.7	-4.69584E-001	1.77390E-008	0.00000E+000	-4.68000E-001	8.05076E-004	7	...........	-327.63
	736	14.74	-4.73536E-001	1.77974E-008	0.00000E+000	-4.72000E-001	7.95076E-004	7	...........	-327.63
	738	14.78	-4.77491E-001	1.78015E-008	0.00000E+000	-4.76000E-001	8.25076E-004	7	...........	-327.63
	740	14.82	-4.81491E-001	1.76307E-008	0.00000E+000	-4.80000E-001	8.15076E-004	7	...........	-327.63
	742	14.86	-4.85503E-001	1.75224E-008	0.00000E+000	-4.84000E-001	7.91743E-004	7	...........	-327.63
	744	14.9	-4.89494E-001	1.74974E-008	0.00000E+000	-4.88000E-001	8.01743E-004	7	...........	-327.63
	746	14.94	-4.93518E-001	1.75224E-008	0.00000E+000	-4.92000E-001	7.98410E-004	7	...........	-327.63
	748	14.98	-4.97585E-001	1.73224E-008	0.00000E+000	-4.96000E-001	7.98410E-004	7	...........	-327.63
	750	15.02	-5.01474E-001	1.75474E-008	0.00000E+000	-5.00000E-001	8.20076E-004	7	...........	-327.63
CURVE2	TABLE
	Pt	T	Vf	Im	Vu	Sig	Ach	IERange	Over	Temp
	#	s	V vs. Ref.	A	V	V	V	#	bits	deg C
	751	15.04	-4.99510E-001	1.76974E-008	0.00000E+000	-4.98000E-001	6.68410E-004	7	...........	-327.63
	753	15.08	-4.95544E-001	1.74932E-008	0.00000E+000	-4.94000E-001	6.71743E-004	7	...........	-327.63
	755	15.12	-4.91515E-001	1.76265E-008	0.00000E+000	-4.90000E-001	6.75076E-004	7	...........	-327.63
	757	15.16	-4.87517E-001	1.76432E-008	0.00000E+000	-4.86000E-001	6.75076E-004	7	...........	-327.63
	759	15.2	-4.83524E-001	1.77307E-008	0.00000E+000	-4.82000E-001	6.81743E-004	7	...........	-327.63
	761	15.24	-4.79522E-001	1.75682E-008	0.00000E+000	-4.78000E-001	6.73410E-004	7	...........	-327.63
	763	15.28	-4.75530E-001	1.76140E-008	0.00000E+000	-4.74000E-001	6.66743E-004	7	...........	-327.63
[...]
	2803	56.08	-3.96175E-001	1.93808E-008	0.00000E+000	-3.94000E-001	4.96743E-004	7	...........	-327.63
	2804	56.1	-3.94187E-001	1.93266E-008	0.00000E+000	-3.92000E-001	4.76743E-004	7	...........	-327.63
	2805	56.12	-3.92129E-001	1.92391E-008	0.00000E+000	-3.90000E-001	5.11743E-004	7	...........	-327.63
	2806	56.14	-3.90109E-001	1.95308E-008	0.00000E+000	-3.88000E-001	5.26743E-004	7	...........	-327.63
	2807	56.16	-3.88105E-001	1.96391E-008	0.00000E+000	-3.86000E-001	5.21743E-004	7	...........	-327.63
	2808	56.18	-3.86095E-001	1.94433E-008	0.00000E+000	-3.84000E-001	5.26743E-004	7	...........	-327.63
	2809	56.2	-3.84093E-001	1.93141E-008	0.00000E+000	-3.82000E-001	4.93410E-004	7	...........	-327.63
	2810	56.22	-3.82097E-001	1.93016E-008	0.00000E+000	-3.80000E-001	5.26743E-004	7	...........	-327.63
	2811	56.24	-3.80106E-001	1.93766E-008	0.00000E+000	-3.78000E-001	5.23410E-004	7	...........	-327.63
	2812	56.26	-3.78089E-001	1.93599E-008	0.00000E+000	-3.76000E-001	5.15076E-004	7	...........	-327.63
	2813	56.28	-3.76076E-001	1.95141E-008	0.00000E+000	-3.74000E-001	5.33410E-004	7	...........	-327.63
	2814	56.3	-3.74066E-001	1.95433E-008	0.00000E+000	-3.72000E-001	5.30076E-004	7	...........	-327.63
	2815	56.32	-3.72076E-001	1.94808E-008	0.00000E+000	-3.70000E-001	4.95076E-004	7	...........	-327.63
	2816	56.34	-3.70222E-001	1.95391E-008	0.00000E+000	-3.68000E-001	5.13410E-004	7	...........	-327.63
	2817	56.36	-3.68179E-001	1.96349E-008	0.00000E+000	-3.66000E-001	5.28410E-004	7	...........	-327.63
	2818	56.38	-3.66160E-001	1.96641E-008	0.00000E+000	-3.64000E-001	5.08410E-004	7	...........	-327.63
	2819	56.4	-3.64143E-001	1.95724E-008	0.00000E+000	-3.62000E-001	4.86743E-004	7	...........	-327.63
	2820	56.42	-3.62136E-001	1.95016E-008	0.00000E+000	-3.60000E-001	5.00076E-004	7	...........	-327.63
	2821	56.44	-3.60117E-001	1.95433E-008	0.00000E+000	-3.58000E-001	4.96743E-004	7	...........	-327.63
	2822	56.46	-3.58129E-001	1.94683E-008	0.00000E+000	-3.56000E-001	5.15076E-004	7	...........	-327.63
	2823	56.48	-3.56162E-001	1.95433E-008	0.00000E+000	-3.54000E-001	5.16743E-004	7	...........	-327.63
	2824	56.5	-3.54143E-001	1.95724E-008	0.00000E+000	-3.52000E-001	5.05076E-004	7	...........	-327.63
	2825	56.52	-3.52137E-001	1.94433E-008	0.00000E+000	-3.50000E-001	5.05076E-004	7	...........	-327.63
	2826	56.54	-3.50135E-001	1.96266E-008	0.00000E+000	-3.48000E-001	5.11743E-004	7	...........	-327.63
	2827	56.56	-3.48155E-001	1.95724E-008	0.00000E+000	-3.46000E-001	5.10076E-004	7	...........	-327.63
	2828	56.58	-3.46137E-001	1.96349E-008	0.00000E+000	-3.44000E-001	5.15076E-004	7	...........	-327.63
	2829	56.6	-3.44230E-001	1.97850E-008	0.00000E+000	-3.42000E-001	4.91743E-004	7	...........	-327.63
	2830	56.62	-3.42247E-001	1.97350E-008	0.00000E+000	-3.40000E-001	5.16743E-004	7	...........	-327.63
	2831	56.64	-3.40198E-001	1.98100E-008	0.00000E+000	-3.38000E-001	5.11743E-004	7	...........	-327.63
	2832	56.66	-3.38198E-001	1.97391E-008	0.00000E+000	-3.36000E-001	5.05076E-004	7	...........	-327.63
	2833	56.68	-3.36187E-001	1.97058E-008	0.00000E+000	-3.34000E-001	5.21743E-004	7	...........	-327.63
	2834	56.7	-3.34177E-001	1.97266E-008	0.00000E+000	-3.32000E-001	5.06743E-004	7	...........	-327.63
	2835	56.72	-3.32200E-001	1.96933E-008	0.00000E+000	-3.30000E-001	5.10076E-004	7	...........	-327.63
	2836	56.74	-3.30186E-001	1.96808E-008	0.00000E+000	-3.28000E-001	5.23410E-004	7	...........	-327.63
	2837	56.76	-3.28177E-001	1.96600E-008	0.00000E+000	-3.26000E-001	4.96743E-004	7	...........	-327.63
	2838	56.78	-3.26155E-001	1.93558E-008	0.00000E+000	-3.24000E-001	5.13410E-004	7	...........	-327.63
	2839	56.8	-3.24136E-001	1.95224E-008	0.00000E+000	-3.22000E-001	5.30076E-004	7	...........	-327.63
	2840	56.82	-3.22139E-001	1.95224E-008	0.00000E+000	-3.20000E-001	5.11743E-004	7	...........	-327.63
	2841	56.84	-3.20168E-001	1.96141E-008	0.00000E+000	-3.18000E-001	5.06743E-004	7	...........	-327.63
	2842	56.86	-3.18285E-001	1.97808E-008	0.00000E+000	-3.16000E-001	5.16743E-004	7	...........	-327.63
	2843	56.88	-3.16247E-001	1.97308E-008	0.00000E+000	-3.14000E-001	5.18410E-004	7	...........	-327.63
	2844	56.9	-3.14267E-001	1.96600E-008	0.00000E+000	-3.12000E-001	5.00076E-004	7	...........	-327.63
	2845	56.92	-3.12205E-001	1.97183E-008	0.00000E+000	-3.10000E-001	4.98410E-004	7	...........	-327.63
	2846	56.94	-3.10200E-001	1.95891E-008	0.00000E+000	-3.08000E-001	5.40076E-004	7	...........	-327.63
	2847	56.96	-3.08194E-001	1.96808E-008	0.00000E+000	-3.06000E-001	5.10076E-004	7	...........	-327.63
	2848	56.98	-3.06256E-001	1.95849E-008	0.00000E+000	-3.04000E-001	5.01743E-004	7	...........	-327.63
	2849	57	-3.04217E-001	1.96600E-008	0.00000E+000	-3.02000E-001	5.01743E-004	7	...........	-327.63
	2850	57.02	-3.02219E-001	1.94974E-008	0.00000E+000	-3.00000E-001	5.28410E-004	7	...........	-327.63
	2851	57.04	-3.00222E-001	1.94516E-008	0.00000E+000	-2.98000E-001	5.13410E-004	7	...........	-327.63
	2852	57.06	-2.98204E-001	1.96516E-008	0.00000E+000	-2.96000E-001	5.35076E-004	7	...........	-327.63
	2853	57.08	-2.96212E-001	1.96308E-008	0.00000E+000	-2.94000E-001	5.25076E-004	7	...........	-327.63
	2854	57.1	-2.94230E-001	1.94474E-008	0.00000E+000	-2.92000E-001	5.20076E-004	7	...........	-327.63
	2855	57.12	-2.92305E-001	1.94141E-008	0.00000E+000	-2.90000E-001	5.03410E-004	7	...........	-327.63
	2856	57.14	-2.90333E-001	1.97183E-008	0.00000E+000	-2.88000E-001	4.90076E-004	7	...........	-327.63
	2857	57.16	-2.88260E-001	1.95349E-008	0.00000E+000	-2.86000E-001	5.18410E-004	7	...........	-327.63
	2858	57.18	-2.86259E-001	1.96266E-008	0.00000E+000	-2.84000E-001	5.20076E-004	7	...........	-327.63
	2859	57.2	-2.84246E-001	1.96683E-008	0.00000E+000	-2.82000E-001	5.10076E-004	7	...........	-327.63
	2860	57.22	-2.82241E-001	1.96183E-008	0.00000E+000	-2.80000E-001	5.05076E-004	7	...........	-327.63
	2861	57.24	-2.80250E-001	1.95974E-008	0.00000E+000	-2.78000E-001	5.00076E-004	7	...........	-327.63
	2862	57.26	-2.78231E-001	1.96266E-008	0.00000E+000	-2.76000E-001	5.20076E-004	7	...........	-327.63
	2863	57.28	-2.76220E-001	1.96975E-008	0.00000E+000	-2.74000E-001	5.15076E-004	7	...........	-327.63
	2864	57.3	-2.74208E-001	1.97933E-008	0.00000E+000	-2.72000E-001	5.40076E-004	7	...........	-327.63
	2865	57.32	-2.72229E-001	1.97141E-008	0.00000E+000	-2.70000E-001	4.90076E-004	7	...........	-327.63
	2866	57.34	-2.70230E-001	1.96850E-008	0.00000E+000	-2.68000E-001	5.21743E-004	7	...........	-327.63
	2867	57.36	-2.68333E-001	1.97225E-008	0.00000E+000	-2.66000E-001	5.25076E-004	7	...........	-327.63
	2868	57.38	-2.66361E-001	1.98516E-008	0.00000E+000	-2.64000E-001	5.10076E-004	7	...........	-327.63
	2869	57.4	-2.64320E-001	2.00850E-008	0.00000E+000	-2.62000E-001	4.93410E-004	7	...........	-327.63
	2870	57.42	-2.62304E-001	1.98308E-008	0.00000E+000	-2.60000E-001	5.21743E-004	7	...........	-327.63
	2871	57.44	-2.60287E-001	1.98266E-008	0.00000E+000	-2.58000E-001	5.06743E-004	7	...........	-327.63
	2872	57.46	-2.58287E-001	1.96975E-008	0.00000E+000	-2.56000E-001	4.80076E-004	7	...........	-327.63
	2873	57.48	-2.56281E-001	1.99558E-008	0.00000E+000	-2.54000E-001	5.01743E-004	7	...........	-327.63
	2874	57.5	-2.54296E-001	1.98308E-008	0.00000E+000	-2.52000E-001	5.05076E-004	7	...........	-327.63
	2875	57.52	-2.52281E-001	1.97766E-008	0.00000E+000	-2.50000E-001	5.06743E-004	7	...........	-327.63
	2876	57.54	-2.50288E-001	1.98558E-008	0.00000E+000	-2.48000E-001	4.95076E-004	7	...........	-327.63
	2877	57.56	-2.48279E-001	1.98725E-008	0.00000E+000	-2.46000E-001	4.88410E-004	7	...........	-327.63
	2878	57.58	-2.46290E-001	1.97433E-008	0.00000E+000	-2.44000E-001	5.36743E-004	7	...........	-327.63
	2879	57.6	-2.44292E-001	1.96683E-008	0.00000E+000	-2.42000E-001	5.21743E-004	7	...........	-327.63
	2880	57.62	-2.42439E-001	1.98683E-008	0.00000E+000	-2.40000E-001	5.05076E-004	7	...........	-327.63
	2881	57.64	-2.40388E-001	1.98558E-008	0.00000E+000	-2.38000E-001	4.95076E-004	7	...........	-327.63
	2882	57.66	-2.38382E-001	1.98808E-008	0.00000E+000	-2.36000E-001	5.30076E-004	7	...........	-327.63
	2883	57.68	-2.36346E-001	2.00058E-008	0.00000E+000	-2.34000E-001	4.95076E-004	7	...........	-327.63
	2884	57.7	-2.34348E-001	1.99808E-008	0.00000E+000	-2.32000E-001	5.25076E-004	7	...........	-327.63
	2885	57.72	-2.32322E-001	1.98266E-008	0.00000E+000	-2.30000E-001	5.01743E-004	7	...........	-327.63
	2886	57.74	-2.30329E-001	1.99100E-008	0.00000E+000	-2.28000E-001	4.95076E-004	7	...........	-327.63
	2887	57.76	-2.28320E-001	1.98308E-008	0.00000E+000	-2.26000E-001	5.18410E-004	7	...........	-327.63
	2888	57.78	-2.26322E-001	2.00016E-008	0.00000E+000	-2.24000E-001	5.31743E-004	7	...........	-327.63
	2889	57.8	-2.24317E-001	1.99308E-008	0.00000E+000	-2.22000E-001	4.98410E-004	7	...........	-327.63
	2890	57.82	-2.22294E-001	1.97933E-008	0.00000E+000	-2.20000E-001	5.18410E-004	7	...........	-327.63
	2891	57.84	-2.20282E-001	1.98100E-008	0.00000E+000	-2.18000E-001	5.15076E-004	7	...........	-327.63
	2892	57.86	-2.18281E-001	1.97433E-008	0.00000E+000	-2.16000E-001	5.01743E-004	7	...........	-327.63
	2893	57.88	-2.16407E-001	1.98766E-008	0.00000E+000	-2.14000E-001	4.88410E-004	7	...........	-327.63
	2894	57.9	-2.14426E-001	1.97308E-008	0.00000E+000	-2.12000E-001	5.06743E-004	7	...........	-327.63
	2895	57.92	-2.12387E-001	1.98100E-008	0.00000E+000	-2.10000E-001	4.95076E-004	7	...........	-327.63
	2896	57.94	-2.10367E-001	1.99850E-008	0.00000E+000	-2.08000E-001	4.95076E-004	7	...........	-327.63
	2897	57.96	-2.08343E-001	1.97891E-008	0.00000E+000	-2.06000E-001	4.98410E-004	7	...........	-327.63
	2898	57.98	-2.06339E-001	2.00225E-008	0.00000E+000	-2.04000E-001	5.30076E-004	7	...........	-327.63
	2899	58	-2.04389E-001	1.98350E-008	0.00000E+000	-2.02000E-001	5.25076E-004	7	...........	-327.63
	2900	58.02	-2.02386E-001	1.99766E-008	0.00000E+000	-2.00000E-001	5.21743E-004	7	...........	-327.63
	2901	58.04	-2.00369E-001	2.00808E-008	0.00000E+000	-1.98000E-001	5.18410E-004	7	...........	-327.63
	2902	58.06	-1.98365E-001	1.99266E-008	0.00000E+000	-1.96000E-001	5.06743E-004	7	...........	-327.63
	2903	58.08	-1.96345E-001	2.00266E-008	0.00000E+000	-1.94000E-001	5.28410E-004	7	...........	-327.63
	2904	58.1	-1.94351E-001	1.99641E-008	0.00000E+000	-1.92000E-001	5.33410E-004	7	...........	-327.63
	2905	58.12	-1.92351E-001	1.99558E-008	0.00000E+000	-1.90000E-001	5.01743E-004	7	...........	-327.63
	2906	58.14	-1.90496E-001	1.99058E-008	0.00000E+000	-1.88000E-001	5.13410E-004	7	...........	-327.63
	2907	58.16	-1.88420E-001	1.98933E-008	0.00000E+000	-1.86000E-001	5.03410E-004	7	...........	-327.63
	2908	58.18	-1.86440E-001	2.00058E-008	0.00000E+000	-1.84000E-001	5.38410E-004	7	...........	-327.63
	2909	58.2	-1.84387E-001	1.99350E-008	0.00000E+000	-1.82000E-001	4.68410E-004	7	...........	-327.63
	2910	58.22	-1.82394E-001	1.97016E-008	0.00000E+000	-1.80000E-001	5.25076E-004	7	...........	-327.63
	2911	58.24	-1.80384E-001	1.98016E-008	0.00000E+000	-1.78000E-001	5.36743E-004	7	...........	-327.63
	2912	58.26	-1.78426E-001	1.98558E-008	0.00000E+000	-1.76000E-001	4.96743E-004	7	...........	-327.63
	2913	58.28	-1.76385E-001	1.96683E-008	0.00000E+000	-1.74000E-001	5.00076E-004	7	...........	-327.63
	2914	58.3	-1.74390E-001	1.97350E-008	0.00000E+000	-1.72000E-001	5.33410E-004	7	...........	-327.63
	2915	58.32	-1.72391E-001	1.97391E-008	0.00000E+000	-1.70000E-001	5.33410E-004	7	...........	-327.63
	2916	58.34	-1.70405E-001	1.98141E-008	0.00000E+000	-1.68000E-001	5.05076E-004	7	...........	-327.63
	2917	58.36	-1.68376E-001	1.95474E-008	0.00000E+000	-1.66000E-001	5.05076E-004	7	...........	-327.63
	2918	58.38	-1.66383E-001	1.95516E-008	0.00000E+000	-1.64000E-001	5.21743E-004	7	...........	-327.63
	2919	58.4	-1.64488E-001	1.97516E-008	0.00000E+000	-1.62000E-001	5.15076E-004	7	...........	-327.63
	2920	58.42	-1.62470E-001	1.94974E-008	0.00000E+000	-1.60000E-001	5.21743E-004	7	...........	-327.63
	2921	58.44	-1.60439E-001	1.96391E-008	0.00000E+000	-1.58000E-001	4.93410E-004	7	...........	-327.63
	2922	58.46	-1.58427E-001	1.97225E-008	0.00000E+000	-1.56000E-001	5.38410E-004	7	...........	-327.63
	2923	58.48	-1.56411E-001	1.97683E-008	0.00000E+000	-1.54000E-001	5.20076E-004	7	...........	-327.63
	2924	58.5	-1.54416E-001	1.97308E-008	0.00000E+000	-1.52000E-001	5.21743E-004	7	...........	-327.63
	2925	58.52	-1.52430E-001	1.96850E-008	0.00000E+000	-1.50000E-001	4.68410E-004	7	...........	-327.63
	2926	58.54	-1.50436E-001	1.95349E-008	0.00000E+000	-1.48000E-001	5.23410E-004	7	...........	-327.63
	2927	58.56	-1.48419E-001	1.95724E-008	0.00000E+000	-1.46000E-001	5.08410E-004	7	...........	-327.63
	2928	58.58	-1.46424E-001	1.98975E-008	0.00000E+000	-1.44000E-001	5.26743E-004	7	...........	-327.63
	2929	58.6	-1.44421E-001	1.96808E-008	0.00000E+000	-1.42000E-001	4.98410E-004	7	...........	-327.63
	2930	58.62	-1.42422E-001	1.96349E-008	0.00000E+000	-1.40000E-001	5.25076E-004	7	...........	-327.63
	2931	58.64	-1.40447E-001	1.97891E-008	0.00000E+000	-1.38000E-001	5.08410E-004	7	...........	-327.63
	2932	58.66	-1.38542E-001	1.96683E-008	0.00000E+000	-1.36000E-001	4.98410E-004	7	...........	-327.63
	2933	58.68	-1.36537E-001	1.96099E-008	0.00000E+000	-1.34000E-001	5.30076E-004	7	...........	-327.63
	2934	58.7	-1.34492E-001	1.97433E-008	0.00000E+000	-1.32000E-001	5.25076E-004	7	...........	-327.63
	2935	58.72	-1.32459E-001	1.95683E-008	0.00000E+000	-1.30000E-001	5.28410E-004	7	...........	-327.63
	2936	58.74	-1.30480E-001	1.96183E-008	0.00000E+000	-1.28000E-001	5.23410E-004	7	...........	-327.63
	2937	58.76	-1.28468E-001	1.96391E-008	0.00000E+000	-1.26000E-001	5.31743E-004	7	...........	-327.63
	2938	58.78	-1.26482E-001	1.98433E-008	0.00000E+000	-1.24000E-001	5.18410E-004	7	...........	-327.63
	2939	58.8	-1.24465E-001	1.96850E-008	0.00000E+000	-1.22000E-001	5.41743E-004	7	...........	-327.63
	2940	58.82	-1.22474E-001	1.96266E-008	0.00000E+000	-1.20000E-001	5.40076E-004	7	...........	-327.63
	2941	58.84	-1.20442E-001	1.95516E-008	0.00000E+000	-1.18000E-001	5.26743E-004	7	...........	-327.63
	2942	58.86	-1.18452E-001	1.94141E-008	0.00000E+000	-1.16000E-001	5.40076E-004	7	...........	-327.63
	2943	58.88	-1.16445E-001	1.95558E-008	0.00000E+000	-1.14000E-001	5.38410E-004	7	...........	-327.63
	2944	58.9	-1.14574E-001	1.95974E-008	0.00000E+000	-1.12000E-001	5.18410E-004	7	...........	-327.63
	2945	58.92	-1.12555E-001	1.94058E-008	0.00000E+000	-1.10000E-001	5.03410E-004	7	...........	-327.63
	2946	58.94	-1.10529E-001	1.95099E-008	0.00000E+000	-1.08000E-001	5.00076E-004	7	...........	-327.63
	2947	58.96	-1.08486E-001	1.93224E-008	0.00000E+000	-1.06000E-001	5.00076E-004	7	...........	-327.63
	2948	58.98	-1.06492E-001	1.94891E-008	0.00000E+000	-1.04000E-001	5.00076E-004	7	...........	-327.63
	2949	59	-1.04462E-001	1.95349E-008	0.00000E+000	-1.02000E-001	5.08410E-004	7	...........	-327.63
	2950	59.02	-1.02471E-001	1.93933E-008	0.00000E+000	-1.00000E-001	5.16743E-004	7	...........	-327.63
	2951	59.04	-1.00499E-001	1.95474E-008	0.00000E+000	-9.80000E-002	5.28410E-004	7	...........	-327.63
	2952	59.06	-9.85045E-002	1.96349E-008	0.00000E+000	-9.60000E-002	5.06743E-004	7	...........	-327.63
	2953	59.08	-9.64887E-002	1.95933E-008	0.00000E+000	-9.40000E-002	5.11743E-004	7	...........	-327.63
	2954	59.1	-9.44957E-002	1.97558E-008	0.00000E+000	-9.20000E-002	5.16743E-004	7	...........	-327.63
	2955	59.12	-9.24937E-002	1.96141E-008	0.00000E+000	-9.00000E-002	5.06743E-004	7	...........	-327.63
	2956	59.14	-9.04928E-002	1.96349E-008	0.00000E+000	-8.80000E-002	5.25076E-004	7	...........	-327.63
	2957	59.16	-8.86457E-002	1.97391E-008	0.00000E+000	-8.60000E-002	5.08410E-004	7	...........	-327.63
	2958	59.18	-8.65949E-002	1.97475E-008	0.00000E+000	-8.40000E-002	4.91743E-004	7	...........	-327.63
	2959	59.2	-8.45899E-002	1.98725E-008	0.00000E+000	-8.20000E-002	5.06743E-004	7	...........	-327.63
	2960	59.22	-8.25641E-002	1.98100E-008	0.00000E+000	-8.00000E-002	5.15076E-004	7	...........	-327.63
	2961	59.24	-8.05462E-002	1.96808E-008	0.00000E+000	-7.80000E-002	5.06743E-004	7	...........	-327.63
	2962	59.26	-7.85420E-002	1.96766E-008	0.00000E+000	-7.60000E-002	5.11743E-004	7	...........	-327.63
	2963	59.28	-7.65341E-002	1.97433E-008	0.00000E+000	-7.40000E-002	5.20076E-004	7	...........	-327.63
	2964	59.3	-7.45428E-002	1.96683E-008	0.00000E+000	-7.20000E-002	5.16743E-004	7	...........	-327.63
	2965	59.32	-7.25337E-002	1.97141E-008	0.00000E+000	-7.00000E-002	5.11743E-004	7	...........	-327.63
	2966	59.34	-7.05403E-002	1.98141E-008	0.00000E+000	-6.80000E-002	5.46743E-004	7	...........	-327.63
	2967	59.36	-6.85245E-002	1.96850E-008	0.00000E+000	-6.60000E-002	5.21743E-004	7	...........	-327.63
	2968	59.38	-6.65395E-002	1.98683E-008	0.00000E+000	-6.40000E-002	5.20076E-004	7	...........	-327.63
	2969	59.4	-6.45337E-002	1.99183E-008	0.00000E+000	-6.20000E-002	5.18410E-004	7	...........	-327.63
	2970	59.42	-6.26324E-002	1.97225E-008	0.00000E+000	-6.00000E-002	4.91743E-004	7	...........	-327.63
	2971	59.44	-6.06462E-002	1.97350E-008	0.00000E+000	-5.80000E-002	5.15076E-004	7	...........	-327.63
	2972	59.46	-5.86049E-002	1.97641E-008	0.00000E+000	-5.60000E-002	5.26743E-004	7	...........	-327.63
	2973	59.48	-5.66020E-002	1.97141E-008	0.00000E+000	-5.40000E-002	5.21743E-004	7	...........	-327.63
	2974	59.5	-5.45532E-002	1.97641E-008	0.00000E+000	-5.20000E-002	5.15076E-004	7	...........	-327.63
	2975	59.52	-5.25424E-002	1.96600E-008	0.00000E+000	-5.00000E-002	5.03410E-004	7	...........	-327.63
	2976	59.54	-5.05749E-002	1.96516E-008	0.00000E+000	-4.80000E-002	4.96743E-004	7	...........	-327.63
	2977	59.56	-4.85770E-002	1.97516E-008	0.00000E+000	-4.60000E-002	4.93410E-004	7	...........	-327.63
	2978	59.58	-4.65741E-002	1.94891E-008	0.00000E+000	-4.40000E-002	5.20076E-004	7	...........	-327.63
	2979	59.6	-4.45649E-002	1.96266E-008	0.00000E+000	-4.20000E-002	5.13410E-004	7	...........	-327.63
	2980	59.62	-4.25578E-002	1.95474E-008	0.00000E+000	-4.00000E-002	5.16743E-004	7	...........	-327.63
	2981	59.64	-4.05607E-002	1.95224E-008	0.00000E+000	-3.80000E-002	5.16743E-004	7	...........	-327.63
	2982	59.66	-3.85616E-002	1.96808E-008	0.00000E+000	-3.60000E-002	5.20076E-004	7	...........	-327.63
	2983	59.68	-3.67149E-002	1.97600E-008	0.00000E+000	-3.40000E-002	4.95076E-004	7	...........	-327.63
	2984	59.7	-3.46599E-002	1.95891E-008	0.00000E+000	-3.20000E-002	5.15076E-004	7	...........	-327.63
	2985	59.72	-3.26682E-002	1.96433E-008	0.00000E+000	-3.00000E-002	4.93410E-004	7	...........	-327.63
	2986	59.74	-3.06295E-002	1.95766E-008	0.00000E+000	-2.80000E-002	5.25076E-004	7	...........	-327.63
	2987	59.76	-2.86162E-002	1.96266E-008	0.00000E+000	-2.60000E-002	5.38410E-004	7	...........	-327.63
	2988	59.78	-2.66162E-002	1.96641E-008	0.00000E+000	-2.40000E-002	5.51743E-004	7	...........	-327.63
	2989	59.8	-2.46416E-002	1.96391E-008	0.00000E+000	-2.20000E-002	5.01743E-004	7	...........	-327.63
	2990	59.82	-2.26137E-002	1.96975E-008	0.00000E+000	-2.00000E-002	4.98410E-004	7	...........	-327.63
	2991	59.84	-2.06120E-002	1.98475E-008	0.00000E+000	-1.80000E-002	5.25076E-004	7	...........	-327.63
	2992	59.86	-1.86020E-002	1.98391E-008	0.00000E+000	-1.60000E-002	5.18410E-004	7	...........	-327.63
	2993	59.88	-1.65891E-002	1.95474E-008	0.00000E+000	-1.40000E-002	5.01743E-004	7	...........	-327.63
	2994	59.9	-1.46070E-002	1.98308E-008	0.00000E+000	-1.20000E-002	5.01743E-004	7	...........	-327.63
	2995	59.92	-1.26207E-002	2.00100E-008	0.00000E+000	-1.00000E-002	5.40076E-004	7	...........	-327.63
	2996	59.94	-1.07028E-002	1.96558E-008	0.00000E+000	-8.00000E-003	5.38410E-004	7	...........	-327.63
	2997	59.96	-8.72616E-003	1.98100E-008	0.00000E+000	-6.00000E-003	5.11743E-004	7	...........	-327.63
	2998	59.98	-6.66449E-003	1.99016E-008	0.00000E+000	-4.00000E-003	5.11743E-004	7	...........	-327.63
	2999	60	-4.67533E-003	1.98725E-008	0.00000E+000	-2.00000E-003	5.21743E-004	7	...........	-327.63
	3000	60.02	-2.62866E-003	1.96850E-008	0.00000E+000	0.00000E+000	5.23410E-004	7	...........	-327.63