File: Gamry/CV_smallGrid_newBuffer_4.DTA
EXPLAIN
TAG	CV
TITLE	LABEL	Cyclic Voltammetry	Test &Identifier
DATE	LABEL	5-12-2022	Date
TIME	LABEL	13:16:01	Time
NOTES	NOTES	1	&Notes...

PSTAT	PSTAT	REF3000-20110	Potentiostat
VINIT	POTEN	0.00000E+000	F	Initial &E (V)
VLIMIT1	POTEN	5.00000E-001	F	Scan Limit &1 (V)
VLIMIT2	POTEN	-5.00000E-001	F	Scan Limit &2 (V)
VFINAL	POTEN	0.00000E+000	F	Final &E (V)
SCANRATE	QUANT	9.99998E+001	&Scan Rate (mV/s)
STEPSIZE	QUANT	2.00000E+000	St&ep Size (mV)
CYCLES	IQUANT	3	C&ycles (#)
IMODE	SELECTOR	0	I/E Range &Mode
IRANGE	QUANT	3.00000E-001	&Max Current (mA)
AREA	QUANT	1.00000E+000	Electrode &Area (cm^2)
ELECTRODETYPE	SELECTOR	0	Electrode Type
STRIPPING	TOGGLE	F	Used for Stripping
CONDIT	TWOPARAM	F	1.50000E+001	0.00000E+000	Conditionin&g	Time(s)	E(V)
DELAY	TWOPARAM	F	3.00000E+001	0.00000E+000	Init. De&lay	Time(s)	Stab.(mV/s)
EQDELAY	QUANT	0.00000E+000	Equil. &Time (s)
IRCOMP	SELECTOR	0	IRCom&p
PFCOR	QUANT	5.00000E+001	PF Corr. (ohm)
SAMPLINGMODE	SELECTOR	1	Sampling &Mode
EOC	QUANT	0	Open Circuit (V)
PSTATMODEL	IQUANT	5	Pstat Model
PSTATSECTION	LABEL	REF3000-20110	Pstat Section
PSTATSERIALNO	LABEL	20110	Pstat Serial Number
CTRLMODE	IQUANT	1	Control Mode
ELECTROMETER	IQUANT	0	RE=0 or CS=1
IESTAB	IQUANT	2	I/E Stability
CASPEED	IQUANT	4	Control Amp Speed
CONVENTION	IQUANT	1	Current Convention
ICHRANGE	IQUANT	2	Ich Range
ICHRANGEMODE	TOGGLE	F	Ich Auto Range
ICHOFFSETENABLE	TOGGLE	F	Ich Offset Enable
ICHOFFSET	QUANT	0	Ich Offset (V)
ICHFILTER	IQUANT	2	Ich Filter
VCHRANGE	IQUANT	2	Vch Range
VCHRANGEMODE	TOGGLE	F	Vch Auto Range
VCHOFFSETENABLE	TOGGLE	F	Vch Offset Enable
VCHOFFSET	QUANT	0	Vch Offset (V)
VCHFILTER	IQUANT	2	Vch Filter
ACHRANGE	IQUANT	2	Ach Range
ACHOFFSETENABLE	TOGGLE	F	Ach Offset Enable
ACHOFFSET	QUANT	0	Ach Offset (V)
ACHFILTER	IQUANT	1	Ach Filter
IERANGELOWERLIMIT	IQUANT	2	I/E Range Lower Limit
IERANGEMODE	TOGGLE	T	I/E AutoRange
IERANGE	IQUANT	9	I/E Range
POSFEEDENABLE	TOGGLE	F	Positive Feedback IR Comp
POSFEEDRESISTANCE	QUANT	0	Positive Feedback Resistance (ohm)
ACHSELECT	IQUANT	4	Ach Select
SENSECABLEID	IQUANT	14	Sense Cable ID
PWRCABLEID	IQUANT	7	Power Cable ID
DCCALDATE	LABEL	8/9/2022	DC Calibration Date
ACCALDATE	LABEL	8/9/2022	AC Calibration Date
THERMOSELECT	IQUANT	1	Thermo Select
FRAMEWORKVERSION	LABEL	7.9.0	Framework Version
INSTRUMENTVERSION	LABEL	4.60	Instrument Version
COMPLIANCEVOLTAGE	IQUANT	0	Compliance Voltage
CURVE1	TABLE
	Pt	T	Vf	Im	Vu	Sig	Ach	IERange	Over	Temp
	#	s	V vs. Ref.	A	V	V	V	#	bits	deg C
	0	0.02	7.96814E-004	-5.80947E-008	0.00000E+000	0.00000E+000	6.63410E-004	9	...........	-327.63
	2	0.06	4.87801E-003	-4.99097E-009	0.00000E+000	4.00000E-003	6.42576E-004	7	...........	-327.63
	4	0.1	8.87092E-003	-5.12847E-009	0.00000E+000	8.00000E-003	6.28410E-004	7	...........	-327.63
	6	0.14	1.28643E-002	-5.17431E-009	0.00000E+000	1.20000E-002	6.62576E-004	7	...........	-327.63
	8	0.18	1.68876E-002	-5.09097E-009	0.00000E+000	1.60000E-002	6.38410E-004	7	...........	-327.63
	10	0.22	2.08918E-002	-5.18264E-009	0.00000E+000	2.00000E-002	6.39243E-004	7	...........	-327.63
	12	0.26	2.48738E-002	-5.24931E-009	0.00000E+000	2.40000E-002	6.50076E-004	7	...........	-327.63
	14	0.3	2.88609E-002	-5.23681E-009	0.00000E+000	2.80000E-002	6.41743E-004	7	...........	-327.63
	16	0.34	3.28522E-002	-5.44932E-009	0.00000E+000	3.20000E-002	6.37576E-004	7	...........	-327.63
	18	0.38	3.68580E-002	-5.17014E-009	0.00000E+000	3.60000E-002	6.34243E-004	7	...........	-327.63
	20	0.42	4.08497E-002	-5.28264E-009	0.00000E+000	4.00000E-002	6.42576E-004	7	...........	-327.63
	22	0.46	4.48376E-002	-5.16597E-009	0.00000E+000	4.40000E-002	6.44243E-004	7	...........	-327.63
	24	0.5	4.88426E-002	-5.12847E-009	0.00000E+000	4.80000E-002	6.35910E-004	7	...........	-327.63
	26	0.54	5.28247E-002	-5.04097E-009	0.00000E+000	5.20000E-002	6.31743E-004	7	...........	-327.63
	28	0.58	5.68063E-002	-5.03680E-009	0.00000E+000	5.60000E-002	6.37576E-004	7	...........	-327.63
	30	0.62	6.07980E-002	-4.99097E-009	0.00000E+000	6.00000E-002	6.58410E-004	7	...........	-327.63
	32	0.66	6.47913E-002	-5.01180E-009	0.00000E+000	6.40000E-002	6.45076E-004	7	...........	-327.63
	34	0.7	6.88022E-002	-4.95763E-009	0.00000E+000	6.80000E-002	6.51743E-004	7	...........	-327.63
	36	0.74	7.27797E-002	-5.15764E-009	0.00000E+000	7.20000E-002	6.27576E-004	7	...........	-327.63
	38	0.78	7.67255E-002	-4.85763E-009	0.00000E+000	7.60000E-002	6.24243E-004	7	...........	-327.63
	40	0.82	8.06884E-002	-4.54512E-009	0.00000E+000	8.00000E-002	6.37576E-004	7	...........	-327.63
	42	0.86	8.46967E-002	-5.06180E-009	0.00000E+000	8.40000E-002	6.43410E-004	7	...........	-327.63
	44	0.9	8.86867E-002	-5.21598E-009	0.00000E+000	8.80000E-002	6.35910E-004	7	...........	-327.63
	46	0.94	9.27034E-002	-5.30765E-009	0.00000E+000	9.20000E-002	6.43410E-004	7	...........	-327.63
	48	0.98	9.67076E-002	-5.17431E-009	0.00000E+000	9.60000E-002	6.36743E-004	7	...........	-327.63
	50	1.02	1.00690E-001	-5.08264E-009	0.00000E+000	1.00000E-001	6.53410E-004	7	...........	-327.63
	52	1.06	1.04665E-001	-5.16181E-009	0.00000E+000	1.04000E-001	6.35076E-004	7	...........	-327.63
	54	1.1	1.08664E-001	-5.28264E-009	0.00000E+000	1.08000E-001	6.43410E-004	7	...........	-327.63
	56	1.14	1.12674E-001	-5.35765E-009	0.00000E+000	1.12000E-001	6.37576E-004	7	...........	-327.63
	58	1.18	1.16655E-001	-5.21598E-009	0.00000E+000	1.16000E-001	6.40910E-004	7	...........	-327.63
	60	1.22	1.20651E-001	-5.14931E-009	0.00000E+000	1.20000E-001	6.37576E-004	7	...........	-327.63
	62	1.26	1.24646E-001	-5.14097E-009	0.00000E+000	1.24000E-001	6.36743E-004	7	...........	-327.63
	64	1.3	1.28630E-001	-5.30765E-009	0.00000E+000	1.28000E-001	6.40910E-004	7	...........	-327.63
	66	1.34	1.32641E-001	-5.14931E-009	0.00000E+000	1.32000E-001	6.49243E-004	7	...........	-327.63
	68	1.38	1.36632E-001	-5.13681E-009	0.00000E+000	1.36000E-001	6.47576E-004	7	...........	-327.63
	70	1.42	1.40611E-001	-5.09930E-009	0.00000E+000	1.40000E-001	6.44243E-004	7	...........	-327.63
	72	1.46	1.44627E-001	-5.06597E-009	0.00000E+000	1.44000E-001	6.39243E-004	7	...........	-327.63
	74	1.5	1.48620E-001	-5.09930E-009	0.00000E+000	1.48000E-001	6.50910E-004	7	...........	-327.63
	76	1.54	1.52625E-001	-5.04930E-009	0.00000E+000	1.52000E-001	6.49243E-004	7	...........	-327.63
	78	1.58	1.56528E-001	-4.81596E-009	0.00000E+000	1.56000E-001	6.46743E-004	7	...........	-327.63
	80	1.62	1.60534E-001	-4.91596E-009	0.00000E+000	1.60000E-001	6.45910E-004	7	...........	-327.63
	82	1.66	1.64540E-001	-4.83680E-009	0.00000E+000	1.64000E-001	6.38410E-004	7	...........	-327.63
	84	1.7	1.68574E-001	-5.03680E-009	0.00000E+000	1.68000E-001	6.35910E-004	7	...........	-327.63
	86	1.74	1.72642E-001	-5.14931E-009	0.00000E+000	1.72000E-001	6.48410E-004	7	...........	-327.63
	88	1.78	1.76592E-001	-5.16181E-009	0.00000E+000	1.76000E-001	6.54243E-004	7	...........	-327.63
	90	1.82	1.80551E-001	-4.99097E-009	0.00000E+000	1.80000E-001	6.43410E-004	7	...........	-327.63
	92	1.86	1.84553E-001	-5.17847E-009	0.00000E+000	1.84000E-001	6.42576E-004	7	...........	-327.63
	94	1.9	1.88544E-001	-4.84096E-009	0.00000E+000	1.88000E-001	6.46743E-004	7	...........	-327.63
	96	1.94	1.92541E-001	-5.04097E-009	0.00000E+000	1.92000E-001	6.55076E-004	7	...........	-327.63
	98	1.98	1.96562E-001	-4.97430E-009	0.00000E+000	1.96000E-001	6.43410E-004	7	...........	-327.63
	100	2.02	2.00543E-001	-4.99930E-009	0.00000E+000	2.00000E-001	6.39243E-004	7	...........	-327.63
	102	2.06	2.04526E-001	-4.88263E-009	0.00000E+000	2.04000E-001	6.48410E-004	7	...........	-327.63
	104	2.1	2.08517E-001	-4.91596E-009	0.00000E+000	2.08000E-001	6.38410E-004	7	...........	-327.63
	106	2.14	2.12488E-001	-4.84513E-009	0.00000E+000	2.12000E-001	6.40910E-004	7	...........	-327.63
	108	2.18	2.16487E-001	-4.75763E-009	0.00000E+000	2.16000E-001	6.28410E-004	7	...........	-327.63
	110	2.22	2.20507E-001	-4.70762E-009	0.00000E+000	2.20000E-001	6.26743E-004	7	...........	-327.63
	112	2.26	2.24498E-001	-4.69096E-009	0.00000E+000	2.24000E-001	6.48410E-004	7	...........	-327.63
	114	2.3	2.28496E-001	-4.77429E-009	0.00000E+000	2.28000E-001	6.43410E-004	7	...........	-327.63
	116	2.34	2.32483E-001	-4.72012E-009	0.00000E+000	2.32000E-001	6.26743E-004	7	...........	-327.63
	118	2.38	2.36468E-001	-4.84096E-009	0.00000E+000	2.36000E-001	6.42576E-004	7	...........	-327.63
	120	2.42	2.40465E-001	-4.82429E-009	0.00000E+000	2.40000E-001	6.39243E-004	7	...........	-327.63
	122	2.46	2.44469E-001	-4.91180E-009	0.00000E+000	2.44000E-001	6.44243E-004	7	...........	-327.63
	124	2.5	2.48463E-001	-4.88263E-009	0.00000E+000	2.48000E-001	6.38410E-004	7	...........	-327.63
	126	2.54	2.52463E-001	-4.88263E-009	0.00000E+000	2.52000E-001	6.50076E-004	7	...........	-327.63
	128	2.58	2.56428E-001	-4.92430E-009	0.00000E+000	2.56000E-001	6.59243E-004	7	...........	-327.63
	130	2.62	2.60425E-001	-5.13264E-009	0.00000E+000	2.60000E-001	6.42576E-004	7	...........	-327.63
	132	2.66	2.65001E-001	-5.18264E-009	0.00000E+000	2.64000E-001	6.30910E-004	7	...........	-327.63
	134	2.7	2.68602E-001	-4.96597E-009	0.00000E+000	2.68000E-001	6.40076E-004	7	...........	-327.63
	136	2.74	2.72569E-001	-4.81179E-009	0.00000E+000	2.72000E-001	6.64243E-004	7	...........	-327.63
	138	2.78	2.76500E-001	-4.80346E-009	0.00000E+000	2.76000E-001	6.52576E-004	7	...........	-327.63
	140	2.82	2.80469E-001	-4.76596E-009	0.00000E+000	2.80000E-001	6.26743E-004	7	...........	-327.63
	142	2.86	2.84476E-001	-4.75346E-009	0.00000E+000	2.84000E-001	6.35910E-004	7	...........	-327.63
	144	2.9	2.88437E-001	-4.76596E-009	0.00000E+000	2.88000E-001	6.33410E-004	7	...........	-327.63
	146	2.94	2.92427E-001	-4.74513E-009	0.00000E+000	2.92000E-001	6.46743E-004	7	...........	-327.63
	148	2.98	2.96450E-001	-4.75346E-009	0.00000E+000	2.96000E-001	6.33410E-004	7	...........	-327.63
	150	3.02	3.00419E-001	-4.87430E-009	0.00000E+000	3.00000E-001	6.61743E-004	7	...........	-327.63
	152	3.06	3.04430E-001	-4.71179E-009	0.00000E+000	3.04000E-001	6.46743E-004	7	...........	-327.63
	154	3.1	3.08394E-001	-4.78679E-009	0.00000E+000	3.08000E-001	6.38410E-004	7	...........	-327.63
	156	3.14	3.12381E-001	-4.91596E-009	0.00000E+000	3.12000E-001	6.30910E-004	7	...........	-327.63
	158	3.18	3.16372E-001	-4.82013E-009	0.00000E+000	3.16000E-001	6.57576E-004	7	...........	-327.63
	160	3.22	3.20369E-001	-4.88680E-009	0.00000E+000	3.20000E-001	6.50910E-004	7	...........	-327.63
	162	3.26	3.24356E-001	-4.75346E-009	0.00000E+000	3.24000E-001	6.37576E-004	7	...........	-327.63
	164	3.3	3.28350E-001	-4.79929E-009	0.00000E+000	3.28000E-001	6.49243E-004	7	...........	-327.63
	166	3.34	3.32370E-001	-4.79096E-009	0.00000E+000	3.32000E-001	6.51743E-004	7	...........	-327.63
	168	3.38	3.36323E-001	-4.72429E-009	0.00000E+000	3.36000E-001	6.30910E-004	7	...........	-327.63
	170	3.42	3.40347E-001	-4.83680E-009	0.00000E+000	3.40000E-001	6.49243E-004	7	...........	-327.63
	172	3.46	3.44348E-001	-4.68262E-009	0.00000E+000	3.44000E-001	6.41743E-004	7	...........	-327.63
	174	3.5	3.48320E-001	-4.56179E-009	0.00000E+000	3.48000E-001	6.50910E-004	7	...........	-327.63
	176	3.54	3.52309E-001	-4.54095E-009	0.00000E+000	3.52000E-001	6.35910E-004	7	...........	-327.63
	178	3.58	3.56279E-001	-4.61595E-009	0.00000E+000	3.56000E-001	6.45910E-004	7	...........	-327.63
	180	3.62	3.60264E-001	-4.49095E-009	0.00000E+000	3.60000E-001	6.50076E-004	7	...........	-327.63
	182	3.66	3.64248E-001	-4.50762E-009	0.00000E+000	3.64000E-001	6.29243E-004	7	...........	-327.63
	184	3.7	3.68248E-001	-4.42428E-009	0.00000E+000	3.68000E-001	6.52576E-004	7	...........	-327.63
	186	3.74	3.72237E-001	-4.41178E-009	0.00000E+000	3.72000E-001	6.46743E-004	7	...........	-327.63
	188	3.78	3.76223E-001	-4.61179E-009	0.00000E+000	3.76000E-001	6.47576E-004	7	...........	-327.63
	190	3.82	3.80222E-001	-4.60762E-009	0.00000E+000	3.80000E-001	6.33410E-004	7	...........	-327.63
	192	3.86	3.84211E-001	-4.51595E-009	0.00000E+000	3.84000E-001	6.30076E-004	7	...........	-327.63
	194	3.9	3.88197E-001	-4.60345E-009	0.00000E+000	3.88000E-001	6.45910E-004	7	...........	-327.63
	196	3.94	3.92188E-001	-4.45761E-009	0.00000E+000	3.92000E-001	6.34243E-004	7	...........	-327.63
	198	3.98	3.96169E-001	-4.81596E-009	0.00000E+000	3.96000E-001	6.32576E-004	7	...........	-327.63
	200	4.02	4.00174E-001	-4.54928E-009	0.00000E+000	4.00000E-001	6.40076E-004	7	...........	-327.63
	202	4.06	4.04169E-001	-4.65762E-009	0.00000E+000	4.04000E-001	6.44243E-004	7	...........	-327.63
	204	4.1	4.08163E-001	-4.47011E-009	0.00000E+000	4.08000E-001	6.43410E-004	7	...........	-327.63
	206	4.14	4.12114E-001	-4.42428E-009	0.00000E+000	4.12000E-001	6.25910E-004	7	...........	-327.63
	208	4.18	4.16112E-001	-4.42845E-009	0.00000E+000	4.16000E-001	6.33410E-004	7	...........	-327.63
	210	4.22	4.20105E-001	-4.39928E-009	0.00000E+000	4.20000E-001	6.40910E-004	7	...........	-327.63
	212	4.26	4.24097E-001	-4.26594E-009	0.00000E+000	4.24000E-001	6.38410E-004	7	...........	-327.63
	214	4.3	4.28101E-001	-4.28677E-009	0.00000E+000	4.28000E-001	6.40910E-004	7	...........	-327.63
	216	4.34	4.32080E-001	-4.27011E-009	0.00000E+000	4.32000E-001	6.21743E-004	7	...........	-327.63
	218	4.38	4.36073E-001	-4.35344E-009	0.00000E+000	4.36000E-001	6.39243E-004	7	...........	-327.63
	220	4.42	4.40060E-001	-4.24094E-009	0.00000E+000	4.40000E-001	6.28410E-004	7	...........	-327.63
	222	4.46	4.44040E-001	-4.15344E-009	0.00000E+000	4.44000E-001	6.25910E-004	7	...........	-327.63
	224	4.5	4.48034E-001	-4.15344E-009	0.00000E+000	4.48000E-001	6.57576E-004	7	...........	-327.63
	226	4.54	4.52049E-001	-4.17844E-009	0.00000E+000	4.52000E-001	6.37576E-004	7	...........	-327.63
	228	4.58	4.56027E-001	-4.24094E-009	0.00000E+000	4.56000E-001	6.15910E-004	7	...........	-327.63
	230	4.62	4.60016E-001	-4.22011E-009	0.00000E+000	4.60000E-001	6.37576E-004	7	...........	-327.63
	232	4.66	4.63986E-001	-4.07010E-009	0.00000E+000	4.64000E-001	6.41743E-004	7	...........	-327.63
	234	4.7	4.67981E-001	-4.12427E-009	0.00000E+000	4.68000E-001	6.42576E-004	7	...........	-327.63
	236	4.74	4.71963E-001	-4.09510E-009	0.00000E+000	4.72000E-001	6.57576E-004	7	...........	-327.63
	238	4.78	4.75970E-001	-4.10343E-009	0.00000E+000	4.76000E-001	6.35910E-004	7	...........	-327.63
	240	4.82	4.79959E-001	-4.14094E-009	0.00000E+000	4.80000E-001	6.37576E-004	7	...........	-327.63
	242	4.86	4.83960E-001	-4.02843E-009	0.00000E+000	4.84000E-001	6.34243E-004	7	...........	-327.63
	244	4.9	4.87930E-001	-4.06593E-009	0.00000E+000	4.88000E-001	6.37576E-004	7	...........	-327.63
	246	4.94	4.91929E-001	-3.93676E-009	0.00000E+000	4.92000E-001	6.31743E-004	7	...........	-327.63
	248	4.98	4.95918E-001	-3.96176E-009	0.00000E+000	4.96000E-001	6.36743E-004	7	...........	-327.63
	250	5.02	4.99894E-001	-3.87843E-009	0.00000E+000	5.00000E-001	6.30910E-004	7	...........	-327.63
	252	5.06	4.95917E-001	-3.74509E-009	0.00000E+000	4.96000E-001	6.25910E-004	7	...........	-327.63
	254	5.1	4.91900E-001	-3.70342E-009	0.00000E+000	4.92000E-001	6.30076E-004	7	...........	-327.63
	256	5.14	4.87901E-001	-3.67008E-009	0.00000E+000	4.88000E-001	6.39243E-004	7	...........	-327.63
	258	5.18	4.83920E-001	-3.82426E-009	0.00000E+000	4.84000E-001	6.40076E-004	7	...........	-327.63
	260	5.22	4.79911E-001	-3.52008E-009	0.00000E+000	4.80000E-001	6.48410E-004	7	...........	-327.63
	262	5.26	4.75918E-001	-3.76592E-009	0.00000E+000	4.76000E-001	6.48410E-004	7	...........	-327.63
	264	5.3	4.71897E-001	-3.74925E-009	0.00000E+000	4.72000E-001	6.40910E-004	7	...........	-327.63
	266	5.34	4.67896E-001	-3.60342E-009	0.00000E+000	4.68000E-001	6.50910E-004	7	...........	-327.63
	268	5.38	4.63898E-001	-3.67842E-009	0.00000E+000	4.64000E-001	6.25076E-004	7	...........	-327.63
	270	5.42	4.59922E-001	-3.89093E-009	0.00000E+000	4.60000E-001	6.45910E-004	7	...........	-327.63
	272	5.46	4.55921E-001	-3.77009E-009	0.00000E+000	4.56000E-001	6.47576E-004	7	...........	-327.63
	274	5.5	4.51930E-001	-3.50758E-009	0.00000E+000	4.52000E-001	6.32576E-004	7	...........	-327.63
	276	5.54	4.47895E-001	-3.63675E-009	0.00000E+000	4.48000E-001	6.50076E-004	7	...........	-327.63
	278	5.58	4.43907E-001	-3.69092E-009	0.00000E+000	4.44000E-001	6.44243E-004	7	...........	-327.63
	280	5.62	4.39913E-001	-3.55758E-009	0.00000E+000	4.40000E-001	6.28410E-004	7	...........	-327.63
	282	5.66	4.35907E-001	-3.49091E-009	0.00000E+000	4.36000E-001	6.29243E-004	7	...........	-327.63
	284	5.7	4.31919E-001	-3.35757E-009	0.00000E+000	4.32000E-001	6.44243E-004	7	...........	-327.63
	286	5.74	4.27923E-001	-3.42424E-009	0.00000E+000	4.28000E-001	6.41743E-004	7	...........	-327.63
	288	5.78	4.23923E-001	-3.17423E-009	0.00000E+000	4.24000E-001	6.46743E-004	7	...........	-327.63
	290	5.82	4.19898E-001	-3.33257E-009	0.00000E+000	4.20000E-001	6.41743E-004	7	...........	-327.63
	292	5.86	4.15912E-001	-3.28257E-009	0.00000E+000	4.16000E-001	6.39243E-004	7	...........	-327.63
	294	5.9	4.11896E-001	-3.19090E-009	0.00000E+000	4.12000E-001	6.44243E-004	7	...........	-327.63
	296	5.94	4.07933E-001	-3.18257E-009	0.00000E+000	4.08000E-001	6.35076E-004	7	...........	-327.63
	298	5.98	4.03937E-001	-3.28257E-009	0.00000E+000	4.04000E-001	6.44243E-004	7	...........	-327.63
	300	6.02	3.99933E-001	-3.09506E-009	0.00000E+000	4.00000E-001	6.32576E-004	7	...........	-327.63
	302	6.06	3.95906E-001	-3.18673E-009	0.00000E+000	3.96000E-001	6.50076E-004	7	...........	-327.63
	304	6.1	3.91914E-001	-3.08256E-009	0.00000E+000	3.92000E-001	6.39243E-004	7	...........	-327.63
	306	6.14	3.87906E-001	-3.33257E-009	0.00000E+000	3.88000E-001	6.51743E-004	7	...........	-327.63
	308	6.18	3.83923E-001	-3.02423E-009	0.00000E+000	3.84000E-001	6.36743E-004	7	...........	-327.63
	310	6.22	3.79919E-001	-2.97839E-009	0.00000E+000	3.80000E-001	6.59243E-004	7	...........	-327.63
	312	6.26	3.75907E-001	-2.99089E-009	0.00000E+000	3.76000E-001	6.53410E-004	7	...........	-327.63
	314	6.3	3.71903E-001	-2.90756E-009	0.00000E+000	3.72000E-001	6.39243E-004	7	...........	-327.63
	316	6.34	3.67909E-001	-2.90756E-009	0.00000E+000	3.68000E-001	6.44243E-004	7	...........	-327.63
	318	6.38	3.63913E-001	-3.07006E-009	0.00000E+000	3.64000E-001	6.44243E-004	7	...........	-327.63
	320	6.42	3.59894E-001	-2.87422E-009	0.00000E+000	3.60000E-001	6.46743E-004	7	...........	-327.63
	322	6.46	3.55925E-001	-2.78255E-009	0.00000E+000	3.56000E-001	6.52576E-004	7	...........	-327.63
	324	6.5	3.51924E-001	-2.84505E-009	0.00000E+000	3.52000E-001	6.31743E-004	7	...........	-327.63
	326	6.54	3.47895E-001	-2.82839E-009	0.00000E+000	3.48000E-001	6.42576E-004	7	...........	-327.63
	328	6.58	3.43902E-001	-2.73672E-009	0.00000E+000	3.44000E-001	6.48410E-004	7	...........	-327.63
	330	6.62	3.39893E-001	-2.57838E-009	0.00000E+000	3.40000E-001	6.32576E-004	7	...........	-327.63
	332	6.66	3.35889E-001	-2.63255E-009	0.00000E+000	3.36000E-001	6.45910E-004	7	...........	-327.63
	334	6.7	3.31908E-001	-2.44504E-009	0.00000E+000	3.32000E-001	6.41743E-004	7	...........	-327.63
	336	6.74	3.27908E-001	-2.60338E-009	0.00000E+000	3.28000E-001	6.46743E-004	7	...........	-327.63
	338	6.78	3.23900E-001	-2.40337E-009	0.00000E+000	3.24000E-001	6.36743E-004	7	...........	-327.63
	340	6.82	3.19884E-001	-2.48671E-009	0.00000E+000	3.20000E-001	6.48410E-004	7	...........	-327.63
	342	6.86	3.15872E-001	-2.46171E-009	0.00000E+000	3.16000E-001	6.52576E-004	7	...........	-327.63
	344	6.9	3.11860E-001	-2.22420E-009	0.00000E+000	3.12000E-001	6.48410E-004	7	...........	-327.63
	346	6.94	3.07863E-001	-2.03669E-009	0.00000E+000	3.08000E-001	6.50910E-004	7	...........	-327.63
	348	6.98	3.03883E-001	-2.08669E-009	0.00000E+000	3.04000E-001	6.35910E-004	7	...........	-327.63
	350	7.02	2.99877E-001	-1.89919E-009	0.00000E+000	3.00000E-001	6.57576E-004	7	...........	-327.63
	352	7.06	2.95869E-001	-1.93252E-009	0.00000E+000	2.96000E-001	6.35910E-004	7	...........	-327.63
	354	7.1	2.91872E-001	-1.87002E-009	0.00000E+000	2.92000E-001	6.48410E-004	7	...........	-327.63
	356	7.14	2.87850E-001	-1.69918E-009	0.00000E+000	2.88000E-001	6.43410E-004	7	...........	-327.63
	358	7.18	2.83861E-001	-1.65334E-009	0.00000E+000	2.84000E-001	6.30910E-004	7	...........	-327.63
	360	7.22	2.79870E-001	-1.62834E-009	0.00000E+000	2.80000E-001	6.37576E-004	7	...........	-327.63
	362	7.26	2.75858E-001	-1.44917E-009	0.00000E+000	2.76000E-001	6.45076E-004	7	...........	-327.63
	364	7.3	2.71851E-001	-1.49500E-009	0.00000E+000	2.72000E-001	6.46743E-004	7	...........	-327.63
	366	7.34	2.67835E-001	-1.44500E-009	0.00000E+000	2.68000E-001	6.42576E-004	7	...........	-327.63
	368	7.38	2.63841E-001	-1.42833E-009	0.00000E+000	2.64000E-001	6.40076E-004	7	...........	-327.63
	370	7.42	2.59818E-001	-1.14916E-009	0.00000E+000	2.60000E-001	6.45076E-004	7	...........	-327.63
	372	7.46	2.55823E-001	-1.27833E-009	0.00000E+000	2.56000E-001	6.34243E-004	7	...........	-327.63
	374	7.5	2.51841E-001	-1.27416E-009	0.00000E+000	2.52000E-001	6.52576E-004	7	...........	-327.63
	376	7.54	2.47821E-001	-1.05749E-009	0.00000E+000	2.48000E-001	6.56743E-004	7	...........	-327.63
	378	7.58	2.43806E-001	-9.69984E-010	0.00000E+000	2.44000E-001	6.44243E-004	7	...........	-327.63
	380	7.62	2.39794E-001	-8.69981E-010	0.00000E+000	2.40000E-001	6.53410E-004	7	...........	-327.63
	382	7.66	2.35769E-001	-6.57473E-010	0.00000E+000	2.36000E-001	6.45076E-004	7	...........	-327.63
	384	7.7	2.31776E-001	-6.11638E-010	0.00000E+000	2.32000E-001	6.45076E-004	7	...........	-327.63
	386	7.74	2.27773E-001	-3.53295E-010	0.00000E+000	2.28000E-001	6.52576E-004	7	...........	-327.63
	388	7.78	2.23769E-001	-5.36635E-010	0.00000E+000	2.24000E-001	6.20076E-004	7	...........	-327.63
	390	7.82	2.19772E-001	-3.15793E-010	0.00000E+000	2.20000E-001	6.35076E-004	7	...........	-327.63
	392	7.86	2.15747E-001	-2.24123E-010	0.00000E+000	2.16000E-001	6.20076E-004	7	...........	-327.63
	394	7.9	2.11732E-001	1.75523E-011	0.00000E+000	2.12000E-001	6.46743E-004	7	...........	-327.63
	396	7.94	2.07718E-001	1.75892E-010	0.00000E+000	2.08000E-001	6.34243E-004	7	...........	-327.63
	398	7.98	2.03722E-001	3.09230E-010	0.00000E+000	2.04000E-001	6.35076E-004	7	...........	-327.63
	400	8.02	1.99719E-001	3.34231E-010	0.00000E+000	2.00000E-001	6.35910E-004	7	...........	-327.63
	402	8.06	1.95713E-001	2.13393E-010	0.00000E+000	1.96000E-001	6.41743E-004	7	...........	-327.63
	404	8.1	1.91707E-001	2.71728E-010	0.00000E+000	1.92000E-001	6.39243E-004	7	...........	-327.63
	406	8.14	1.87701E-001	4.67569E-010	0.00000E+000	1.88000E-001	6.54243E-004	7	...........	-327.63
	408	8.18	1.83688E-001	5.88407E-010	0.00000E+000	1.84000E-001	6.36743E-004	7	...........	-327.63
	410	8.22	1.79665E-001	6.25908E-010	0.00000E+000	1.80000E-001	6.33410E-004	7	...........	-327.63
	412	8.26	1.75677E-001	6.46742E-010	0.00000E+000	1.76000E-001	6.47576E-004	7	...........	-327.63
	414	8.3	1.71669E-001	6.80077E-010	0.00000E+000	1.72000E-001	6.27576E-004	7	...........	-327.63
	416	8.34	1.67648E-001	8.13415E-010	0.00000E+000	1.68000E-001	6.35076E-004	7	...........	-327.63
	418	8.38	1.63633E-001	9.67588E-010	0.00000E+000	1.64000E-001	6.29243E-004	7	...........	-327.63
	420	8.42	1.59626E-001	9.38420E-010	0.00000E+000	1.60000E-001	6.52576E-004	7	...........	-327.63
	422	8.46	1.55612E-001	1.01759E-009	0.00000E+000	1.56000E-001	6.39243E-004	7	...........	-327.63
	424	8.5	1.51607E-001	9.09252E-010	0.00000E+000	1.52000E-001	6.45910E-004	7	...........	-327.63
	426	8.54	1.47591E-001	1.20093E-009	0.00000E+000	1.48000E-001	6.31743E-004	7	...........	-327.63
	428	8.58	1.43591E-001	1.07593E-009	0.00000E+000	1.44000E-001	6.40076E-004	7	...........	-327.63
	430	8.62	1.39567E-001	1.20926E-009	0.00000E+000	1.40000E-001	6.40910E-004	7	...........	-327.63
	432	8.66	1.35564E-001	1.44261E-009	0.00000E+000	1.36000E-001	6.29243E-004	7	...........	-327.63
	434	8.7	1.31561E-001	1.54261E-009	0.00000E+000	1.32000E-001	6.25076E-004	7	...........	-327.63
	436	8.74	1.27554E-001	1.61345E-009	0.00000E+000	1.28000E-001	6.37576E-004	7	...........	-327.63
	438	8.78	1.23544E-001	1.70095E-009	0.00000E+000	1.24000E-001	6.50910E-004	7	...........	-327.63
	440	8.82	1.19569E-001	1.74678E-009	0.00000E+000	1.20000E-001	6.44243E-004	7	...........	-327.63
	442	8.86	1.15511E-001	1.75095E-009	0.00000E+000	1.16000E-001	6.45910E-004	7	...........	-327.63
	444	8.9	1.11518E-001	1.92596E-009	0.00000E+000	1.12000E-001	6.40910E-004	7	...........	-327.63
	446	8.94	1.07522E-001	1.99679E-009	0.00000E+000	1.08000E-001	6.60910E-004	7	...........	-327.63
	448	8.98	1.03528E-001	1.90096E-009	0.00000E+000	1.04000E-001	6.28410E-004	7	...........	-327.63
	450	9.02	9.95601E-002	2.19263E-009	0.00000E+000	1.00000E-001	6.32576E-004	7	...........	-327.63
	452	9.06	9.55080E-002	2.33014E-009	0.00000E+000	9.60000E-002	6.37576E-004	7	...........	-327.63
	454	9.1	9.15072E-002	2.33847E-009	0.00000E+000	9.20000E-002	6.42576E-004	7	...........	-327.63
	456	9.14	8.74772E-002	2.28014E-009	0.00000E+000	8.80000E-002	6.37576E-004	7	...........	-327.63
	458	9.18	8.34913E-002	2.33431E-009	0.00000E+000	8.40000E-002	6.42576E-004	7	...........	-327.63
	460	9.22	7.95388E-002	2.67598E-009	0.00000E+000	8.00000E-002	6.10910E-004	7	...........	-327.63
	462	9.26	7.55197E-002	2.44264E-009	0.00000E+000	7.60000E-002	6.35910E-004	7	...........	-327.63
	464	9.3	7.15338E-002	2.67598E-009	0.00000E+000	7.20000E-002	6.31743E-004	7	...........	-327.63
	466	9.34	6.74922E-002	2.71765E-009	0.00000E+000	6.80000E-002	6.41743E-004	7	...........	-327.63
	468	9.38	6.34922E-002	2.81349E-009	0.00000E+000	6.40000E-002	6.50910E-004	7	...........	-327.63
	470	9.42	5.95809E-002	3.02600E-009	0.00000E+000	6.00000E-002	6.38410E-004	7	...........	-327.63
	472	9.46	5.55934E-002	3.04267E-009	0.00000E+000	5.60000E-002	6.23410E-004	7	...........	-327.63
	474	9.5	5.16168E-002	3.22601E-009	0.00000E+000	5.20000E-002	6.29243E-004	7	...........	-327.63
	476	9.54	4.76155E-002	3.15934E-009	0.00000E+000	4.80000E-002	6.29243E-004	7	...........	-327.63
	478	9.58	4.36118E-002	3.27601E-009	0.00000E+000	4.40000E-002	6.46743E-004	7	...........	-327.63
	480	9.62	3.96030E-002	3.50935E-009	0.00000E+000	4.00000E-002	6.45910E-004	7	...........	-327.63
	482	9.66	3.55684E-002	3.62185E-009	0.00000E+000	3.60000E-002	6.30076E-004	7	...........	-327.63
	484	9.7	3.15243E-002	3.63019E-009	0.00000E+000	3.20000E-002	6.25076E-004	7	...........	-327.63
	486	9.74	2.75438E-002	3.81769E-009	0.00000E+000	2.80000E-002	6.35910E-004	7	...........	-327.63
	488	9.78	2.35159E-002	4.01770E-009	0.00000E+000	2.40000E-002	6.38410E-004	7	...........	-327.63
	490	9.82	1.95172E-002	4.08020E-009	0.00000E+000	2.00000E-002	6.35076E-004	7	...........	-327.63
	492	9.86	1.54859E-002	4.18021E-009	0.00000E+000	1.60000E-002	6.38410E-004	7	...........	-327.63
	494	9.9	1.14868E-002	4.31355E-009	0.00000E+000	1.20000E-002	6.45910E-004	7	...........	-327.63
	496	9.94	7.44051E-003	4.62606E-009	0.00000E+000	8.00000E-003	6.24243E-004	7	...........	-327.63
	498	9.98	3.43051E-003	4.72606E-009	0.00000E+000	4.00000E-003	6.35910E-004	7	...........	-327.63
	500	10.02	-6.06160E-004	4.91773E-009	0.00000E+000	0.00000E+000	6.45910E-004	7	...........	-327.63
	502	10.06	-4.60574E-003	4.93440E-009	0.00000E+000	-4.00000E-003	6.50910E-004	7	...........	-327.63
	504	10.1	-8.63991E-003	5.21775E-009	0.00000E+000	-8.00000E-003	6.35910E-004	7	...........	-327.63
	506	10.14	-1.26545E-002	5.24691E-009	0.00000E+000	-1.20000E-002	6.36743E-004	7	...........	-327.63
	508	10.18	-1.66707E-002	5.44275E-009	0.00000E+000	-1.60000E-002	6.35910E-004	7	...........	-327.63
	510	10.22	-2.07324E-002	5.57609E-009	0.00000E+000	-2.00000E-002	6.42576E-004	7	...........	-327.63
	512	10.26	-2.47499E-002	5.58026E-009	0.00000E+000	-2.40000E-002	6.30076E-004	7	...........	-327.63
	514	10.3	-2.87628E-002	5.82194E-009	0.00000E+000	-2.80000E-002	6.45076E-004	7	...........	-327.63
	516	10.34	-3.27882E-002	6.03861E-009	0.00000E+000	-3.20000E-002	6.30910E-004	7	...........	-327.63
	518	10.38	-3.68687E-002	6.12611E-009	0.00000E+000	-3.60000E-002	6.40076E-004	7	...........	-327.63
	520	10.42	-4.08807E-002	6.22195E-009	0.00000E+000	-4.00000E-002	6.27576E-004	7	...........	-327.63
	522	10.46	-4.48928E-002	6.28862E-009	0.00000E+000	-4.40000E-002	6.34243E-004	7	...........	-327.63
	524	10.5	-4.89299E-002	6.72614E-009	0.00000E+000	-4.80000E-002	6.55910E-004	7	...........	-327.63
	526	10.54	-5.29399E-002	6.80531E-009	0.00000E+000	-5.20000E-002	6.50910E-004	7	...........	-327.63
	528	10.58	-5.69503E-002	6.98865E-009	0.00000E+000	-5.60000E-002	6.47576E-004	7	...........	-327.63
	530	10.62	-6.09891E-002	6.99698E-009	0.00000E+000	-6.00000E-002	6.40910E-004	7	...........	-327.63
	532	10.66	-6.50091E-002	7.25116E-009	0.00000E+000	-6.40000E-002	6.55910E-004	7	...........	-327.63
	534	10.7	-6.90466E-002	7.40949E-009	0.00000E+000	-6.80000E-002	6.50076E-004	7	...........	-327.63
	536	10.74	-7.30724E-002	7.63034E-009	0.00000E+000	-7.20000E-002	6.52576E-004	7	...........	-327.63
	538	10.78	-7.70712E-002	7.92618E-009	0.00000E+000	-7.60000E-002	6.49243E-004	7	...........	-327.63
	540	10.82	-8.10966E-002	7.95952E-009	0.00000E+000	-8.00000E-002	6.30910E-004	7	...........	-327.63
	542	10.86	-8.51303E-002	8.03868E-009	0.00000E+000	-8.40000E-002	6.44243E-004	7	...........	-327.63
	544	10.9	-8.91324E-002	8.41370E-009	0.00000E+000	-8.80000E-002	6.50910E-004	7	...........	-327.63
	546	10.94	-9.30966E-002	8.58037E-009	0.00000E+000	-9.20000E-002	6.51743E-004	7	...........	-327.63
	548	10.98	-9.70707E-002	8.70538E-009	0.00000E+000	-9.60000E-002	6.47576E-004	7	...........	-327.63
	550	11.02	-1.01193E-001	8.85121E-009	0.00000E+000	-1.00000E-001	6.41743E-004	7	...........	-327.63
	552	11.06	-1.05197E-001	9.23873E-009	0.00000E+000	-1.04000E-001	6.47576E-004	7	...........	-327.63
	554	11.1	-1.09215E-001	9.19289E-009	0.00000E+000	-1.08000E-001	6.54243E-004	7	...........	-327.63
	556	11.14	-1.13358E-001	9.53457E-009	0.00000E+000	-1.12000E-001	6.38410E-004	7	...........	-327.63
	558	11.18	-1.17418E-001	9.63874E-009	0.00000E+000	-1.16000E-001	6.40076E-004	7	...........	-327.63
	560	11.22	-1.21437E-001	1.00596E-008	0.00000E+000	-1.20000E-001	6.43410E-004	7	...........	-327.63
	562	11.26	-1.25465E-001	9.91375E-009	0.00000E+000	-1.24000E-001	6.28410E-004	7	...........	-327.63
	564	11.3	-1.29475E-001	9.86792E-009	0.00000E+000	-1.28000E-001	6.40076E-004	7	...........	-327.63
	566	11.34	-1.33502E-001	1.00096E-008	0.00000E+000	-1.32000E-001	6.59243E-004	7	...........	-327.63
	568	11.38	-1.37518E-001	1.02846E-008	0.00000E+000	-1.36000E-001	6.43410E-004	7	...........	-327.63
	570	11.42	-1.41549E-001	1.02721E-008	0.00000E+000	-1.40000E-001	6.35076E-004	7	...........	-327.63
	572	11.46	-1.45558E-001	1.04929E-008	0.00000E+000	-1.44000E-001	6.42576E-004	7	...........	-327.63
	574	11.5	-1.49579E-001	1.03554E-008	0.00000E+000	-1.48000E-001	6.58410E-004	7	...........	-327.63
	576	11.54	-1.53579E-001	1.06679E-008	0.00000E+000	-1.52000E-001	6.28410E-004	7	...........	-327.63
	578	11.58	-1.57585E-001	1.07680E-008	0.00000E+000	-1.56000E-001	6.53410E-004	7	...........	-327.63
	580	11.62	-1.61608E-001	1.09180E-008	0.00000E+000	-1.60000E-001	6.35910E-004	7	...........	-327.63
	582	11.66	-1.65616E-001	1.09263E-008	0.00000E+000	-1.64000E-001	6.28410E-004	7	...........	-327.63
	584	11.7	-1.69642E-001	1.10763E-008	0.00000E+000	-1.68000E-001	6.43410E-004	7	...........	-327.63
	586	11.74	-1.73664E-001	1.12305E-008	0.00000E+000	-1.72000E-001	6.44243E-004	7	...........	-327.63
	588	11.78	-1.77685E-001	1.14013E-008	0.00000E+000	-1.76000E-001	6.29243E-004	7	...........	-327.63
	590	11.82	-1.81680E-001	1.15305E-008	0.00000E+000	-1.80000E-001	6.45910E-004	7	...........	-327.63
	592	11.86	-1.85699E-001	1.16847E-008	0.00000E+000	-1.84000E-001	6.42576E-004	7	...........	-327.63
	594	11.9	-1.89720E-001	1.16930E-008	0.00000E+000	-1.88000E-001	6.61743E-004	7	...........	-327.63
	596	11.94	-1.93743E-001	1.19305E-008	0.00000E+000	-1.92000E-001	6.52576E-004	7	...........	-327.63
	598	11.98	-1.97776E-001	1.18722E-008	0.00000E+000	-1.96000E-001	6.49243E-004	7	...........	-327.63
	600	12.02	-2.01774E-001	1.21430E-008	0.00000E+000	-2.00000E-001	6.23410E-004	7	...........	-327.63
	602	12.06	-2.05769E-001	1.23263E-008	0.00000E+000	-2.04000E-001	6.40076E-004	7	...........	-327.63
	604	12.1	-2.09802E-001	1.24263E-008	0.00000E+000	-2.08000E-001	6.35910E-004	7	...........	-327.63
	606	12.14	-2.13813E-001	1.25430E-008	0.00000E+000	-2.12000E-001	6.55076E-004	7	...........	-327.63
	608	12.18	-2.17832E-001	1.28597E-008	0.00000E+000	-2.16000E-001	6.50076E-004	7	...........	-327.63
	610	12.22	-2.21863E-001	1.29222E-008	0.00000E+000	-2.20000E-001	6.48410E-004	7	...........	-327.63
	612	12.26	-2.25874E-001	1.33805E-008	0.00000E+000	-2.24000E-001	6.42576E-004	7	...........	-327.63
	614	12.3	-2.29894E-001	1.33055E-008	0.00000E+000	-2.28000E-001	6.46743E-004	7	...........	-327.63
	616	12.34	-2.33901E-001	1.33222E-008	0.00000E+000	-2.32000E-001	6.54243E-004	7	...........	-327.63
	618	12.38	-2.37921E-001	1.34139E-008	0.00000E+000	-2.36000E-001	6.32576E-004	7	...........	-327.63
	620	12.42	-2.41943E-001	1.36097E-008	0.00000E+000	-2.40000E-001	6.50076E-004	7	...........	-327.63
	622	12.46	-2.45949E-001	1.38931E-008	0.00000E+000	-2.44000E-001	6.49243E-004	7	...........	-327.63
	624	12.5	-2.49984E-001	1.39639E-008	0.00000E+000	-2.48000E-001	6.31743E-004	7	...........	-327.63
	626	12.54	-2.53989E-001	1.40556E-008	0.00000E+000	-2.52000E-001	6.37576E-004	7	...........	-327.63
	628	12.58	-2.57967E-001	1.43389E-008	0.00000E+000	-2.56000E-001	6.45910E-004	7	...........	-327.63
	630	12.62	-2.62000E-001	1.44098E-008	0.00000E+000	-2.60000E-001	6.48410E-004	7	...........	-327.63
	632	12.66	-2.66014E-001	1.46556E-008	0.00000E+000	-2.64000E-001	6.62576E-004	7	...........	-327.63
	634	12.7	-2.70026E-001	1.46098E-008	0.00000E+000	-2.68000E-001	6.44243E-004	7	...........	-327.63
	636	12.74	-2.74040E-001	1.48973E-008	0.00000E+000	-2.72000E-001	6.32576E-004	7	...........	-327.63
	638	12.78	-2.78052E-001	1.49348E-008	0.00000E+000	-2.76000E-001	6.38410E-004	7	...........	-327.63
	640	12.82	-2.82057E-001	1.51765E-008	0.00000E+000	-2.80000E-001	6.28410E-004	7	...........	-327.63
	642	12.86	-2.86069E-001	1.52265E-008	0.00000E+000	-2.84000E-001	6.50910E-004	7	...........	-327.63
	644	12.9	-2.90082E-001	1.53056E-008	0.00000E+000	-2.88000E-001	6.51743E-004	7	...........	-327.63
	646	12.94	-2.94111E-001	1.55515E-008	0.00000E+000	-2.92000E-001	6.41743E-004	7	...........	-327.63
	648	12.98	-2.98107E-001	1.53306E-008	0.00000E+000	-2.96000E-001	6.45910E-004	7	...........	-327.63
	650	13.02	-3.02139E-001	1.56890E-008	0.00000E+000	-3.00000E-001	6.51743E-004	7	...........	-327.63
	652	13.06	-3.06144E-001	1.59723E-008	0.00000E+000	-3.04000E-001	6.54243E-004	7	...........	-327.63
	654	13.1	-3.10030E-001	1.61140E-008	0.00000E+000	-3.08000E-001	6.41743E-004	7	...........	-327.63
	656	13.14	-3.14089E-001	1.60932E-008	0.00000E+000	-3.12000E-001	6.53410E-004	7	...........	-327.63
	658	13.18	-3.18162E-001	1.61307E-008	0.00000E+000	-3.16000E-001	6.33410E-004	7	...........	-327.63
	660	13.22	-3.22163E-001	1.63640E-008	0.00000E+000	-3.20000E-001	6.37576E-004	7	...........	-327.63
	662	13.26	-3.26167E-001	1.64015E-008	0.00000E+000	-3.24000E-001	6.37576E-004	7	...........	-327.63
	664	13.3	-3.30209E-001	1.65015E-008	0.00000E+000	-3.28000E-001	6.36743E-004	7	...........	-327.63
	666	13.34	-3.34442E-001	1.67265E-008	0.00000E+000	-3.32000E-001	6.49243E-004	7	...........	-327.63
	668	13.38	-3.38183E-001	1.66848E-008	0.00000E+000	-3.36000E-001	6.38410E-004	7	...........	-327.63
	670	13.42	-3.42194E-001	1.67265E-008	0.00000E+000	-3.40000E-001	6.36743E-004	7	...........	-327.63
	672	13.46	-3.46215E-001	1.67015E-008	0.00000E+000	-3.44000E-001	6.63410E-004	7	...........	-327.63
	674	13.5	-3.50208E-001	1.68723E-008	0.00000E+000	-3.48000E-001	6.39243E-004	7	...........	-327.63
	676	13.54	-3.54218E-001	1.68723E-008	0.00000E+000	-3.52000E-001	6.30076E-004	7	...........	-327.63
	678	13.58	-3.58223E-001	1.68348E-008	0.00000E+000	-3.56000E-001	6.50910E-004	7	...........	-327.63
	680	13.62	-3.62199E-001	1.72224E-008	0.00000E+000	-3.60000E-001	6.50910E-004	7	...........	-327.63
	682	13.66	-3.66183E-001	1.69348E-008	0.00000E+000	-3.64000E-001	6.55076E-004	7	...........	-327.63
	684	13.7	-3.70222E-001	1.69640E-008	0.00000E+000	-3.68000E-001	6.50910E-004	7	...........	-327.63
	686	13.74	-3.74205E-001	1.71599E-008	0.00000E+000	-3.72000E-001	6.44243E-004	7	...........	-327.63
	688	13.78	-3.78194E-001	1.71224E-008	0.00000E+000	-3.76000E-001	6.42576E-004	7	...........	-327.63
	690	13.82	-3.82189E-001	1.73974E-008	0.00000E+000	-3.80000E-001	6.27576E-004	7	...........	-327.63
	692	13.86	-3.86186E-001	1.74974E-008	0.00000E+000	-3.84000E-001	6.40076E-004	7	...........	-327.63
	694	13.9	-3.90176E-001	1.75099E-008	0.00000E+000	-3.88000E-001	6.36743E-004	7	...........	-327.63
	696	13.94	-3.94184E-001	1.77432E-008	0.00000E+000	-3.92000E-001	6.55076E-004	7	...........	-327.63
	698	13.98	-3.98194E-001	1.76724E-008	0.00000E+000	-3.96000E-001	6.54243E-004	7	...........	-327.63
	700	14.02	-4.02192E-001	1.78390E-008	0.00000E+000	-4.00000E-001	6.36743E-004	7	...........	-327.63
	702	14.06	-4.06202E-001	1.77974E-008	0.00000E+000	-4.04000E-001	6.49243E-004	7	...........	-327.63
	704	14.1	-4.10182E-001	1.79682E-008	0.00000E+000	-4.08000E-001	6.38410E-004	7	...........	-327.63
	706	14.14	-4.14199E-001	1.79182E-008	0.00000E+000	-4.12000E-001	6.43410E-004	7	...........	-327.63
	708	14.18	-4.18184E-001	1.80599E-008	0.00000E+000	-4.16000E-001	6.40910E-004	7	...........	-327.63
	710	14.22	-4.22211E-001	1.81516E-008	0.00000E+000	-4.20000E-001	6.47576E-004	7	...........	-327.63
	712	14.26	-4.26220E-001	1.80724E-008	0.00000E+000	-4.24000E-001	6.55910E-004	7	...........	-327.63
	714	14.3	-4.30190E-001	1.80016E-008	0.00000E+000	-4.28000E-001	6.53410E-004	7	...........	-327.63
	716	14.34	-4.34204E-001	1.78891E-008	0.00000E+000	-4.32000E-001	6.38410E-004	7	...........	-327.63
	718	14.38	-4.38232E-001	1.81599E-008	0.00000E+000	-4.36000E-001	6.60910E-004	7	...........	-327.63
	720	14.42	-4.42204E-001	1.82016E-008	0.00000E+000	-4.40000E-001	6.44243E-004	7	...........	-327.63
	722	14.46	-4.46205E-001	1.79599E-008	0.00000E+000	-4.44000E-001	6.45076E-004	7	...........	-327.63
	724	14.5	-4.50196E-001	1.80307E-008	0.00000E+000	-4.48000E-001	6.45910E-004	7	...........	-327.63
	726	14.54	-4.54190E-001	1.80224E-008	0.00000E+000	-4.52000E-001	6.41743E-004	7	...........	-327.63
	728	14.58	-4.58165E-001	1.78349E-008	0.00000E+000	-4.56000E-001	6.50076E-004	7	...........	-327.63
	730	14.62	-4.62109E-001	1.78057E-008	0.00000E+000	-4.60000E-001	6.62576E-004	7	...........	-327.63
	732	14.66	-4.66120E-001	1.76224E-008	0.00000E+000	-4.64000E-001	6.37576E-004	7	...........	-327.63
	734	14.7	-4.70087E-001	1.76182E-008	0.00000E+000	-4.68000E-001	6.64243E-004	7	...........	-327.63
	736	14.74	-4.74076E-001	1.75599E-008	0.00000E+000	-4.72000E-001	6.48410E-004	7	...........	-327.63
	738	14.78	-4.78066E-001	1.74890E-008	0.00000E+000	-4.76000E-001	6.50076E-004	7	...........	-327.63
	740	14.82	-4.82046E-001	1.76140E-008	0.00000E+000	-4.80000E-001	6.63410E-004	7	...........	-327.63
	742	14.86	-4.86039E-001	1.76099E-008	0.00000E+000	-4.84000E-001	6.67576E-004	7	...........	-327.63
	744	14.9	-4.89995E-001	1.77724E-008	0.00000E+000	-4.88000E-001	6.45076E-004	7	...........	-327.63
	746	14.94	-4.93957E-001	1.75682E-008	0.00000E+000	-4.92000E-001	6.35910E-004	7	...........	-327.63
	748	14.98	-4.97942E-001	1.76015E-008	0.00000E+000	-4.96000E-001	6.48410E-004	7	...........	-327.63
	750	15.02	-5.01910E-001	1.74140E-008	0.00000E+000	-5.00000E-001	6.54243E-004	7	...........	-327.63
CURVE2	TABLE
	Pt	T	Vf	Im	Vu	Sig	Ach	IERange	Over	Temp
	#	s	V vs. Ref.	A	V	V	V	#	bits	deg C
	751	15.04	-4.99947E-001	1.73807E-008	0.00000E+000	-4.98000E-001	5.65076E-004	7	...........	-327.63
	753	15.08	-4.95925E-001	1.72765E-008	0.00000E+000	-4.94000E-001	5.70076E-004	7	...........	-327.63
	755	15.12	-4.91916E-001	1.73640E-008	0.00000E+000	-4.90000E-001	5.56743E-004	7	...........	-327.63
	757	15.16	-4.87923E-001	1.73140E-008	0.00000E+000	-4.86000E-001	5.75076E-004	7	...........	-327.63
	759	15.2	-4.83915E-001	1.69599E-008	0.00000E+000	-4.82000E-001	5.67576E-004	7	...........	-327.63
[...]
	2803	56.08	-3.96015E-001	1.74099E-008	0.00000E+000	-3.94000E-001	3.30910E-004	7	...........	-327.63
	2804	56.1	-3.94019E-001	1.73474E-008	0.00000E+000	-3.92000E-001	3.63410E-004	7	...........	-327.63
	2805	56.12	-3.92007E-001	1.75265E-008	0.00000E+000	-3.90000E-001	3.45076E-004	7	...........	-327.63
	2806	56.14	-3.90006E-001	1.74849E-008	0.00000E+000	-3.88000E-001	3.44243E-004	7	...........	-327.63
	2807	56.16	-3.88011E-001	1.74890E-008	0.00000E+000	-3.86000E-001	3.45076E-004	7	...........	-327.63
	2808	56.18	-3.86011E-001	1.74599E-008	0.00000E+000	-3.84000E-001	3.56743E-004	7	...........	-327.63
	2809	56.2	-3.84026E-001	1.74099E-008	0.00000E+000	-3.82000E-001	3.43410E-004	7	...........	-327.63
	2810	56.22	-3.82031E-001	1.74599E-008	0.00000E+000	-3.80000E-001	3.50076E-004	7	...........	-327.63
	2811	56.24	-3.80041E-001	1.75390E-008	0.00000E+000	-3.78000E-001	3.25076E-004	7	...........	-327.63
	2812	56.26	-3.78040E-001	1.74974E-008	0.00000E+000	-3.76000E-001	3.40910E-004	7	...........	-327.63
	2813	56.28	-3.76050E-001	1.75765E-008	0.00000E+000	-3.74000E-001	3.54243E-004	7	...........	-327.63
	2814	56.3	-3.74052E-001	1.76432E-008	0.00000E+000	-3.72000E-001	3.40076E-004	7	...........	-327.63
	2815	56.32	-3.72062E-001	1.74974E-008	0.00000E+000	-3.70000E-001	3.40910E-004	7	...........	-327.63
	2816	56.34	-3.70063E-001	1.74182E-008	0.00000E+000	-3.68000E-001	3.50910E-004	7	...........	-327.63
	2817	56.36	-3.68048E-001	1.74599E-008	0.00000E+000	-3.66000E-001	3.55910E-004	7	...........	-327.63
	2818	56.38	-3.66050E-001	1.74182E-008	0.00000E+000	-3.64000E-001	3.69243E-004	7	...........	-327.63
	2819	56.4	-3.64065E-001	1.77474E-008	0.00000E+000	-3.62000E-001	3.31743E-004	7	...........	-327.63
	2820	56.42	-3.62059E-001	1.76307E-008	0.00000E+000	-3.60000E-001	3.44243E-004	7	...........	-327.63
	2821	56.44	-3.60051E-001	1.76932E-008	0.00000E+000	-3.58000E-001	3.37576E-004	7	...........	-327.63
	2822	56.46	-3.58084E-001	1.76015E-008	0.00000E+000	-3.56000E-001	3.63410E-004	7	...........	-327.63
	2823	56.48	-3.56089E-001	1.76807E-008	0.00000E+000	-3.54000E-001	3.31743E-004	7	...........	-327.63
	2824	56.5	-3.54092E-001	1.74640E-008	0.00000E+000	-3.52000E-001	3.69243E-004	7	...........	-327.63
	2825	56.52	-3.52103E-001	1.77349E-008	0.00000E+000	-3.50000E-001	3.40910E-004	7	...........	-327.63
	2826	56.54	-3.50101E-001	1.75640E-008	0.00000E+000	-3.48000E-001	3.63410E-004	7	...........	-327.63
	2827	56.56	-3.48096E-001	1.76307E-008	0.00000E+000	-3.46000E-001	3.41743E-004	7	...........	-327.63
	2828	56.58	-3.46100E-001	1.75724E-008	0.00000E+000	-3.44000E-001	3.76743E-004	7	...........	-327.63
	2829	56.6	-3.44110E-001	1.76682E-008	0.00000E+000	-3.42000E-001	3.41743E-004	7	...........	-327.63
	2830	56.62	-3.42106E-001	1.75640E-008	0.00000E+000	-3.40000E-001	3.65910E-004	7	...........	-327.63
	2831	56.64	-3.40109E-001	1.76807E-008	0.00000E+000	-3.38000E-001	3.31743E-004	7	...........	-327.63
	2832	56.66	-3.38103E-001	1.78140E-008	0.00000E+000	-3.36000E-001	3.62576E-004	7	...........	-327.63
	2833	56.68	-3.36106E-001	1.77099E-008	0.00000E+000	-3.34000E-001	3.41743E-004	7	...........	-327.63
	2834	56.7	-3.34132E-001	1.78015E-008	0.00000E+000	-3.32000E-001	3.59243E-004	7	...........	-327.63
	2835	56.72	-3.32130E-001	1.78724E-008	0.00000E+000	-3.30000E-001	3.30076E-004	7	...........	-327.63
	2836	56.74	-3.30130E-001	1.77349E-008	0.00000E+000	-3.28000E-001	3.61743E-004	7	...........	-327.63
	2837	56.76	-3.28133E-001	1.79099E-008	0.00000E+000	-3.26000E-001	3.41743E-004	7	...........	-327.63
	2838	56.78	-3.26137E-001	1.77849E-008	0.00000E+000	-3.24000E-001	3.50076E-004	7	...........	-327.63
	2839	56.8	-3.24131E-001	1.79099E-008	0.00000E+000	-3.22000E-001	3.40076E-004	7	...........	-327.63
	2840	56.82	-3.22140E-001	1.77390E-008	0.00000E+000	-3.20000E-001	3.54243E-004	7	...........	-327.63
	2841	56.84	-3.20148E-001	1.77890E-008	0.00000E+000	-3.18000E-001	3.50076E-004	7	...........	-327.63
	2842	56.86	-3.18138E-001	1.78432E-008	0.00000E+000	-3.16000E-001	3.68410E-004	7	...........	-327.63
	2843	56.88	-3.16128E-001	1.77640E-008	0.00000E+000	-3.14000E-001	3.25076E-004	7	...........	-327.63
	2844	56.9	-3.14135E-001	1.78974E-008	0.00000E+000	-3.12000E-001	3.69243E-004	7	...........	-327.63
	2845	56.92	-3.12141E-001	1.79349E-008	0.00000E+000	-3.10000E-001	3.40076E-004	7	...........	-327.63
	2846	56.94	-3.10139E-001	1.79057E-008	0.00000E+000	-3.08000E-001	3.72576E-004	7	...........	-327.63
	2847	56.96	-3.08142E-001	1.77890E-008	0.00000E+000	-3.06000E-001	3.39243E-004	7	...........	-327.63
	2848	56.98	-3.06185E-001	1.78682E-008	0.00000E+000	-3.04000E-001	3.35076E-004	7	...........	-327.63
	2849	57	-3.04172E-001	1.77682E-008	0.00000E+000	-3.02000E-001	3.50910E-004	7	...........	-327.63
	2850	57.02	-3.02182E-001	1.77015E-008	0.00000E+000	-3.00000E-001	3.45910E-004	7	...........	-327.63
	2851	57.04	-3.00172E-001	1.76932E-008	0.00000E+000	-2.98000E-001	3.27576E-004	7	...........	-327.63
	2852	57.06	-2.98177E-001	1.76349E-008	0.00000E+000	-2.96000E-001	3.56743E-004	7	...........	-327.63
	2853	57.08	-2.96196E-001	1.77515E-008	0.00000E+000	-2.94000E-001	3.49243E-004	7	...........	-327.63
	2854	57.1	-2.94193E-001	1.76849E-008	0.00000E+000	-2.92000E-001	3.43410E-004	7	...........	-327.63
	2855	57.12	-2.92182E-001	1.78057E-008	0.00000E+000	-2.90000E-001	3.50910E-004	7	...........	-327.63
	2856	57.14	-2.90186E-001	1.78349E-008	0.00000E+000	-2.88000E-001	3.54243E-004	7	...........	-327.63
	2857	57.16	-2.88194E-001	1.79599E-008	0.00000E+000	-2.86000E-001	3.39243E-004	7	...........	-327.63
	2858	57.18	-2.86185E-001	1.78140E-008	0.00000E+000	-2.84000E-001	3.50076E-004	7	...........	-327.63
	2859	57.2	-2.84186E-001	1.77765E-008	0.00000E+000	-2.82000E-001	3.37576E-004	7	...........	-327.63
	2860	57.22	-2.82188E-001	1.77140E-008	0.00000E+000	-2.80000E-001	3.51743E-004	7	...........	-327.63
	2861	57.24	-2.80221E-001	1.77557E-008	0.00000E+000	-2.78000E-001	3.36743E-004	7	...........	-327.63
	2862	57.26	-2.78202E-001	1.78390E-008	0.00000E+000	-2.76000E-001	3.38410E-004	7	...........	-327.63
	2863	57.28	-2.76199E-001	1.79599E-008	0.00000E+000	-2.74000E-001	3.42576E-004	7	...........	-327.63
	2864	57.3	-2.74211E-001	1.78057E-008	0.00000E+000	-2.72000E-001	3.47576E-004	7	...........	-327.63
	2865	57.32	-2.72217E-001	1.78265E-008	0.00000E+000	-2.70000E-001	3.50076E-004	7	...........	-327.63
	2866	57.34	-2.70221E-001	1.76349E-008	0.00000E+000	-2.68000E-001	3.60910E-004	7	...........	-327.63
	2867	57.36	-2.68214E-001	1.78265E-008	0.00000E+000	-2.66000E-001	3.60076E-004	7	...........	-327.63
	2868	57.38	-2.66210E-001	1.77140E-008	0.00000E+000	-2.64000E-001	3.76743E-004	7	...........	-327.63
	2869	57.4	-2.64210E-001	1.76349E-008	0.00000E+000	-2.62000E-001	3.41743E-004	7	...........	-327.63
	2870	57.42	-2.62217E-001	1.77182E-008	0.00000E+000	-2.60000E-001	3.68410E-004	7	...........	-327.63
	2871	57.44	-2.60206E-001	1.76515E-008	0.00000E+000	-2.58000E-001	3.62576E-004	7	...........	-327.63
	2872	57.46	-2.58219E-001	1.78432E-008	0.00000E+000	-2.56000E-001	3.36743E-004	7	...........	-327.63
	2873	57.48	-2.56227E-001	1.78515E-008	0.00000E+000	-2.54000E-001	3.55076E-004	7	...........	-327.63
	2874	57.5	-2.54241E-001	1.77682E-008	0.00000E+000	-2.52000E-001	3.41743E-004	7	...........	-327.63
	2875	57.52	-2.52239E-001	1.78015E-008	0.00000E+000	-2.50000E-001	3.41743E-004	7	...........	-327.63
	2876	57.54	-2.50246E-001	1.76724E-008	0.00000E+000	-2.48000E-001	3.62576E-004	7	...........	-327.63
	2877	57.56	-2.48232E-001	1.77974E-008	0.00000E+000	-2.46000E-001	3.45910E-004	7	...........	-327.63
	2878	57.58	-2.46244E-001	1.76807E-008	0.00000E+000	-2.44000E-001	3.43410E-004	7	...........	-327.63
	2879	57.6	-2.44256E-001	1.77265E-008	0.00000E+000	-2.42000E-001	3.55076E-004	7	...........	-327.63
	2880	57.62	-2.42285E-001	1.78057E-008	0.00000E+000	-2.40000E-001	3.49243E-004	7	...........	-327.63
	2881	57.64	-2.40274E-001	1.77640E-008	0.00000E+000	-2.38000E-001	3.62576E-004	7	...........	-327.63
	2882	57.66	-2.38260E-001	1.76349E-008	0.00000E+000	-2.36000E-001	3.62576E-004	7	...........	-327.63
	2883	57.68	-2.36251E-001	1.77890E-008	0.00000E+000	-2.34000E-001	3.60076E-004	7	...........	-327.63
	2884	57.7	-2.34269E-001	1.76224E-008	0.00000E+000	-2.32000E-001	3.31743E-004	7	...........	-327.63
	2885	57.72	-2.32261E-001	1.77724E-008	0.00000E+000	-2.30000E-001	3.63410E-004	7	...........	-327.63
	2886	57.74	-2.30270E-001	1.76849E-008	0.00000E+000	-2.28000E-001	3.40076E-004	7	...........	-327.63
	2887	57.76	-2.28266E-001	1.77515E-008	0.00000E+000	-2.26000E-001	3.43410E-004	7	...........	-327.63
	2888	57.78	-2.26276E-001	1.77474E-008	0.00000E+000	-2.24000E-001	3.63410E-004	7	...........	-327.63
	2889	57.8	-2.24279E-001	1.75140E-008	0.00000E+000	-2.22000E-001	3.52576E-004	7	...........	-327.63
	2890	57.82	-2.22276E-001	1.76932E-008	0.00000E+000	-2.20000E-001	3.49243E-004	7	...........	-327.63
	2891	57.84	-2.20284E-001	1.74307E-008	0.00000E+000	-2.18000E-001	3.47576E-004	7	...........	-327.63
	2892	57.86	-2.18287E-001	1.75557E-008	0.00000E+000	-2.16000E-001	3.41743E-004	7	...........	-327.63
	2893	57.88	-2.16291E-001	1.75307E-008	0.00000E+000	-2.14000E-001	3.47576E-004	7	...........	-327.63
	2894	57.9	-2.14288E-001	1.76807E-008	0.00000E+000	-2.12000E-001	3.50076E-004	7	...........	-327.63
	2895	57.92	-2.12289E-001	1.76224E-008	0.00000E+000	-2.10000E-001	3.40910E-004	7	...........	-327.63
	2896	57.94	-2.10297E-001	1.77349E-008	0.00000E+000	-2.08000E-001	3.57576E-004	7	...........	-327.63
	2897	57.96	-2.08293E-001	1.77140E-008	0.00000E+000	-2.06000E-001	3.52576E-004	7	...........	-327.63
	2898	57.98	-2.06277E-001	1.79557E-008	0.00000E+000	-2.04000E-001	3.40076E-004	7	...........	-327.63
	2899	58	-2.04316E-001	1.78140E-008	0.00000E+000	-2.02000E-001	3.50076E-004	7	...........	-327.63
	2900	58.02	-2.02321E-001	1.79974E-008	0.00000E+000	-2.00000E-001	3.38410E-004	7	...........	-327.63
	2901	58.04	-2.00319E-001	1.79141E-008	0.00000E+000	-1.98000E-001	3.53410E-004	7	...........	-327.63
	2902	58.06	-1.98325E-001	1.78932E-008	0.00000E+000	-1.96000E-001	3.41743E-004	7	...........	-327.63
	2903	58.08	-1.96321E-001	1.80057E-008	0.00000E+000	-1.94000E-001	3.53410E-004	7	...........	-327.63
	2904	58.1	-1.94327E-001	1.79599E-008	0.00000E+000	-1.92000E-001	3.38410E-004	7	...........	-327.63
	2905	58.12	-1.92317E-001	1.78766E-008	0.00000E+000	-1.90000E-001	3.51743E-004	7	...........	-327.63
	2906	58.14	-1.90329E-001	1.80932E-008	0.00000E+000	-1.88000E-001	3.49243E-004	7	...........	-327.63
	2907	58.16	-1.88327E-001	1.79307E-008	0.00000E+000	-1.86000E-001	3.26743E-004	7	...........	-327.63
	2908	58.18	-1.86313E-001	1.79891E-008	0.00000E+000	-1.84000E-001	3.82576E-004	7	...........	-327.63
	2909	58.2	-1.84312E-001	1.79599E-008	0.00000E+000	-1.82000E-001	3.45910E-004	7	...........	-327.63
	2910	58.22	-1.82325E-001	1.78724E-008	0.00000E+000	-1.80000E-001	3.51743E-004	7	...........	-327.63
	2911	58.24	-1.80330E-001	1.79891E-008	0.00000E+000	-1.78000E-001	3.41743E-004	7	...........	-327.63
	2912	58.26	-1.78346E-001	1.78599E-008	0.00000E+000	-1.76000E-001	3.37576E-004	7	...........	-327.63
	2913	58.28	-1.76338E-001	1.79016E-008	0.00000E+000	-1.74000E-001	3.38410E-004	7	...........	-327.63
	2914	58.3	-1.74335E-001	1.81516E-008	0.00000E+000	-1.72000E-001	3.55910E-004	7	...........	-327.63
	2915	58.32	-1.72342E-001	1.81432E-008	0.00000E+000	-1.70000E-001	3.53410E-004	7	...........	-327.63
	2916	58.34	-1.70343E-001	1.81349E-008	0.00000E+000	-1.68000E-001	3.49243E-004	7	...........	-327.63
	2917	58.36	-1.68345E-001	1.81016E-008	0.00000E+000	-1.66000E-001	3.35076E-004	7	...........	-327.63
	2918	58.38	-1.66350E-001	1.80432E-008	0.00000E+000	-1.64000E-001	3.50910E-004	7	...........	-327.63
	2919	58.4	-1.64365E-001	1.82224E-008	0.00000E+000	-1.62000E-001	3.52576E-004	7	...........	-327.63
	2920	58.42	-1.62364E-001	1.82974E-008	0.00000E+000	-1.60000E-001	3.62576E-004	7	...........	-327.63
	2921	58.44	-1.60351E-001	1.79474E-008	0.00000E+000	-1.58000E-001	3.46743E-004	7	...........	-327.63
	2922	58.46	-1.58351E-001	1.81682E-008	0.00000E+000	-1.56000E-001	3.41743E-004	7	...........	-327.63
	2923	58.48	-1.56359E-001	1.81807E-008	0.00000E+000	-1.54000E-001	3.54243E-004	7	...........	-327.63
	2924	58.5	-1.54350E-001	1.81349E-008	0.00000E+000	-1.52000E-001	3.38410E-004	7	...........	-327.63
	2925	58.52	-1.52385E-001	1.80266E-008	0.00000E+000	-1.50000E-001	3.57576E-004	7	...........	-327.63
	2926	58.54	-1.50381E-001	1.81266E-008	0.00000E+000	-1.48000E-001	3.35076E-004	7	...........	-327.63
	2927	58.56	-1.48387E-001	1.79224E-008	0.00000E+000	-1.46000E-001	3.52576E-004	7	...........	-327.63
	2928	58.58	-1.46384E-001	1.78641E-008	0.00000E+000	-1.44000E-001	3.60076E-004	7	...........	-327.63
	2929	58.6	-1.44382E-001	1.79807E-008	0.00000E+000	-1.42000E-001	3.47576E-004	7	...........	-327.63
	2930	58.62	-1.42406E-001	1.80057E-008	0.00000E+000	-1.40000E-001	3.33410E-004	7	...........	-327.63
	2931	58.64	-1.40405E-001	1.80474E-008	0.00000E+000	-1.38000E-001	3.54243E-004	7	...........	-327.63
	2932	58.66	-1.38402E-001	1.79141E-008	0.00000E+000	-1.36000E-001	3.30076E-004	7	...........	-327.63
	2933	58.68	-1.36391E-001	1.80766E-008	0.00000E+000	-1.34000E-001	3.62576E-004	7	...........	-327.63
	2934	58.7	-1.34400E-001	1.79807E-008	0.00000E+000	-1.32000E-001	3.45076E-004	7	...........	-327.63
	2935	58.72	-1.32392E-001	1.78099E-008	0.00000E+000	-1.30000E-001	3.50076E-004	7	...........	-327.63
	2936	58.74	-1.30395E-001	1.78974E-008	0.00000E+000	-1.28000E-001	3.40910E-004	7	...........	-327.63
	2937	58.76	-1.28402E-001	1.80516E-008	0.00000E+000	-1.26000E-001	3.63410E-004	7	...........	-327.63
	2938	58.78	-1.26410E-001	1.79557E-008	0.00000E+000	-1.24000E-001	3.36743E-004	7	...........	-327.63
	2939	58.8	-1.24417E-001	1.78932E-008	0.00000E+000	-1.22000E-001	3.50076E-004	7	...........	-327.63
	2940	58.82	-1.22427E-001	1.78182E-008	0.00000E+000	-1.20000E-001	3.40076E-004	7	...........	-327.63
	2941	58.84	-1.20422E-001	1.79016E-008	0.00000E+000	-1.18000E-001	3.75076E-004	7	...........	-327.63
	2942	58.86	-1.18425E-001	1.78641E-008	0.00000E+000	-1.16000E-001	3.39243E-004	7	...........	-327.63
	2943	58.88	-1.16424E-001	1.78557E-008	0.00000E+000	-1.14000E-001	3.38410E-004	7	...........	-327.63
	2944	58.9	-1.14407E-001	1.78432E-008	0.00000E+000	-1.12000E-001	3.57576E-004	7	...........	-327.63
	2945	58.92	-1.12428E-001	1.78515E-008	0.00000E+000	-1.10000E-001	3.50910E-004	7	...........	-327.63
	2946	58.94	-1.10434E-001	1.79516E-008	0.00000E+000	-1.08000E-001	3.56743E-004	7	...........	-327.63
	2947	58.96	-1.08429E-001	1.78599E-008	0.00000E+000	-1.06000E-001	3.51743E-004	7	...........	-327.63
	2948	58.98	-1.06415E-001	1.78641E-008	0.00000E+000	-1.04000E-001	3.41743E-004	7	...........	-327.63
	2949	59	-1.04429E-001	1.79474E-008	0.00000E+000	-1.02000E-001	3.46743E-004	7	...........	-327.63
	2950	59.02	-1.02444E-001	1.79266E-008	0.00000E+000	-1.00000E-001	3.41743E-004	7	...........	-327.63
	2951	59.04	-1.00458E-001	1.79891E-008	0.00000E+000	-9.80000E-002	3.51743E-004	7	...........	-327.63
	2952	59.06	-9.84603E-002	1.80016E-008	0.00000E+000	-9.60000E-002	3.35910E-004	7	...........	-327.63
	2953	59.08	-9.64649E-002	1.79849E-008	0.00000E+000	-9.40000E-002	3.66743E-004	7	...........	-327.63
	2954	59.1	-9.44620E-002	1.78432E-008	0.00000E+000	-9.20000E-002	3.49243E-004	7	...........	-327.63
	2955	59.12	-9.24632E-002	1.77932E-008	0.00000E+000	-9.00000E-002	3.50076E-004	7	...........	-327.63
	2956	59.14	-9.04753E-002	1.77015E-008	0.00000E+000	-8.80000E-002	3.25076E-004	7	...........	-327.63
	2957	59.16	-8.84816E-002	1.76974E-008	0.00000E+000	-8.60000E-002	3.38410E-004	7	...........	-327.63
	2958	59.18	-8.64932E-002	1.77390E-008	0.00000E+000	-8.40000E-002	3.58410E-004	7	...........	-327.63
	2959	59.2	-8.44674E-002	1.75640E-008	0.00000E+000	-8.20000E-002	3.34243E-004	7	...........	-327.63
	2960	59.22	-8.24628E-002	1.77224E-008	0.00000E+000	-8.00000E-002	3.33410E-004	7	...........	-327.63
	2961	59.24	-8.04774E-002	1.77557E-008	0.00000E+000	-7.80000E-002	3.51743E-004	7	...........	-327.63
	2962	59.26	-7.84928E-002	1.77682E-008	0.00000E+000	-7.60000E-002	3.47576E-004	7	...........	-327.63
	2963	59.28	-7.64949E-002	1.78349E-008	0.00000E+000	-7.40000E-002	3.35076E-004	7	...........	-327.63
	2964	59.3	-7.44887E-002	1.79474E-008	0.00000E+000	-7.20000E-002	3.35076E-004	7	...........	-327.63
	2965	59.32	-7.24912E-002	1.78182E-008	0.00000E+000	-7.00000E-002	3.35910E-004	7	...........	-327.63
	2966	59.34	-7.04957E-002	1.79307E-008	0.00000E+000	-6.80000E-002	3.56743E-004	7	...........	-327.63
	2967	59.36	-6.84999E-002	1.79641E-008	0.00000E+000	-6.60000E-002	3.57576E-004	7	...........	-327.63
	2968	59.38	-6.64991E-002	1.79474E-008	0.00000E+000	-6.40000E-002	3.46743E-004	7	...........	-327.63
	2969	59.4	-6.45049E-002	1.81807E-008	0.00000E+000	-6.20000E-002	3.60910E-004	7	...........	-327.63
	2970	59.42	-6.25207E-002	1.80474E-008	0.00000E+000	-6.00000E-002	3.54243E-004	7	...........	-327.63
	2971	59.44	-6.05149E-002	1.80349E-008	0.00000E+000	-5.80000E-002	3.55076E-004	7	...........	-327.63
	2972	59.46	-5.85082E-002	1.81182E-008	0.00000E+000	-5.60000E-002	3.43410E-004	7	...........	-327.63
	2973	59.48	-5.65062E-002	1.81182E-008	0.00000E+000	-5.40000E-002	3.47576E-004	7	...........	-327.63
	2974	59.5	-5.45145E-002	1.82432E-008	0.00000E+000	-5.20000E-002	3.47576E-004	7	...........	-327.63
	2975	59.52	-5.25212E-002	1.81557E-008	0.00000E+000	-5.00000E-002	3.43410E-004	7	...........	-327.63
	2976	59.54	-5.05524E-002	1.81891E-008	0.00000E+000	-4.80000E-002	3.32576E-004	7	...........	-327.63
	2977	59.56	-4.85328E-002	1.81307E-008	0.00000E+000	-4.60000E-002	3.50076E-004	7	...........	-327.63
	2978	59.58	-4.65437E-002	1.81266E-008	0.00000E+000	-4.40000E-002	3.42576E-004	7	...........	-327.63
	2979	59.6	-4.45391E-002	1.82266E-008	0.00000E+000	-4.20000E-002	3.50076E-004	7	...........	-327.63
	2980	59.62	-4.25345E-002	1.81557E-008	0.00000E+000	-4.00000E-002	3.51743E-004	7	...........	-327.63
	2981	59.64	-4.05416E-002	1.81557E-008	0.00000E+000	-3.80000E-002	3.63410E-004	7	...........	-327.63
	2982	59.66	-3.85482E-002	1.80974E-008	0.00000E+000	-3.60000E-002	3.39243E-004	7	...........	-327.63
	2983	59.68	-3.65528E-002	1.81391E-008	0.00000E+000	-3.40000E-002	3.41743E-004	7	...........	-327.63
	2984	59.7	-3.45466E-002	1.84099E-008	0.00000E+000	-3.20000E-002	3.42576E-004	7	...........	-327.63
	2985	59.72	-3.25545E-002	1.82557E-008	0.00000E+000	-3.00000E-002	3.63410E-004	7	...........	-327.63
	2986	59.74	-3.05474E-002	1.83224E-008	0.00000E+000	-2.80000E-002	3.43410E-004	7	...........	-327.63
	2987	59.76	-2.85441E-002	1.81057E-008	0.00000E+000	-2.60000E-002	3.47576E-004	7	...........	-327.63
	2988	59.78	-2.65532E-002	1.82266E-008	0.00000E+000	-2.40000E-002	3.51743E-004	7	...........	-327.63
	2989	59.8	-2.45770E-002	1.80766E-008	0.00000E+000	-2.20000E-002	3.53410E-004	7	...........	-327.63
	2990	59.82	-2.25795E-002	1.80391E-008	0.00000E+000	-2.00000E-002	3.43410E-004	7	...........	-327.63
	2991	59.84	-2.05766E-002	1.80474E-008	0.00000E+000	-1.80000E-002	3.32576E-004	7	...........	-327.63
	2992	59.86	-1.85712E-002	1.81307E-008	0.00000E+000	-1.60000E-002	3.43410E-004	7	...........	-327.63
	2993	59.88	-1.65778E-002	1.81599E-008	0.00000E+000	-1.40000E-002	3.55910E-004	7	...........	-327.63
	2994	59.9	-1.45887E-002	1.79724E-008	0.00000E+000	-1.20000E-002	3.45910E-004	7	...........	-327.63
	2995	59.92	-1.25841E-002	1.80932E-008	0.00000E+000	-1.00000E-002	3.50910E-004	7	...........	-327.63
	2996	59.94	-1.05903E-002	1.82016E-008	0.00000E+000	-8.00000E-003	3.45910E-004	7	...........	-327.63
	2997	59.96	-8.59158E-003	1.81891E-008	0.00000E+000	-6.00000E-003	3.61743E-004	7	...........	-327.63
	2998	59.98	-6.58616E-003	1.81599E-008	0.00000E+000	-4.00000E-003	3.67576E-004	7	...........	-327.63
	2999	60	-4.57408E-003	1.81266E-008	0.00000E+000	-2.00000E-003	3.61743E-004	7	...........	-327.63
	3000	60.02	-2.59699E-003	1.81557E-008	0.00000E+000	0.00000E+000	3.36743E-004	7	...........	-327.63