File: Gamry/CV_smallGrid_newBuffer_3.DTA
EXPLAIN
TAG	CV
TITLE	LABEL	Cyclic Voltammetry	Test &Identifier
DATE	LABEL	5-12-2022	Date
TIME	LABEL	13:11:56	Time
NOTES	NOTES	1	&Notes...

PSTAT	PSTAT	REF3000-20110	Potentiostat
VINIT	POTEN	0.00000E+000	F	Initial &E (V)
VLIMIT1	POTEN	5.00000E-001	F	Scan Limit &1 (V)
VLIMIT2	POTEN	-5.00000E-001	F	Scan Limit &2 (V)
VFINAL	POTEN	0.00000E+000	F	Final &E (V)
SCANRATE	QUANT	9.99998E+001	&Scan Rate (mV/s)
STEPSIZE	QUANT	2.00000E+000	St&ep Size (mV)
CYCLES	IQUANT	3	C&ycles (#)
IMODE	SELECTOR	0	I/E Range &Mode
IRANGE	QUANT	3.00000E-001	&Max Current (mA)
AREA	QUANT	1.00000E+000	Electrode &Area (cm^2)
ELECTRODETYPE	SELECTOR	0	Electrode Type
STRIPPING	TOGGLE	F	Used for Stripping
CONDIT	TWOPARAM	F	1.50000E+001	0.00000E+000	Conditionin&g	Time(s)	E(V)
DELAY	TWOPARAM	F	3.00000E+001	0.00000E+000	Init. De&lay	Time(s)	Stab.(mV/s)
EQDELAY	QUANT	0.00000E+000	Equil. &Time (s)
IRCOMP	SELECTOR	0	IRCom&p
PFCOR	QUANT	5.00000E+001	PF Corr. (ohm)
SAMPLINGMODE	SELECTOR	1	Sampling &Mode
EOC	QUANT	0	Open Circuit (V)
PSTATMODEL	IQUANT	5	Pstat Model
PSTATSECTION	LABEL	REF3000-20110	Pstat Section
PSTATSERIALNO	LABEL	20110	Pstat Serial Number
CTRLMODE	IQUANT	1	Control Mode
ELECTROMETER	IQUANT	0	RE=0 or CS=1
IESTAB	IQUANT	2	I/E Stability
CASPEED	IQUANT	4	Control Amp Speed
CONVENTION	IQUANT	1	Current Convention
ICHRANGE	IQUANT	2	Ich Range
ICHRANGEMODE	TOGGLE	F	Ich Auto Range
ICHOFFSETENABLE	TOGGLE	F	Ich Offset Enable
ICHOFFSET	QUANT	0	Ich Offset (V)
ICHFILTER	IQUANT	2	Ich Filter
VCHRANGE	IQUANT	2	Vch Range
VCHRANGEMODE	TOGGLE	F	Vch Auto Range
VCHOFFSETENABLE	TOGGLE	F	Vch Offset Enable
VCHOFFSET	QUANT	0	Vch Offset (V)
VCHFILTER	IQUANT	2	Vch Filter
ACHRANGE	IQUANT	2	Ach Range
ACHOFFSETENABLE	TOGGLE	F	Ach Offset Enable
ACHOFFSET	QUANT	0	Ach Offset (V)
ACHFILTER	IQUANT	1	Ach Filter
IERANGELOWERLIMIT	IQUANT	2	I/E Range Lower Limit
IERANGEMODE	TOGGLE	T	I/E AutoRange
IERANGE	IQUANT	9	I/E Range
POSFEEDENABLE	TOGGLE	F	Positive Feedback IR Comp
POSFEEDRESISTANCE	QUANT	0	Positive Feedback Resistance (ohm)
ACHSELECT	IQUANT	4	Ach Select
SENSECABLEID	IQUANT	14	Sense Cable ID
PWRCABLEID	IQUANT	7	Power Cable ID
DCCALDATE	LABEL	8/9/2022	DC Calibration Date
ACCALDATE	LABEL	8/9/2022	AC Calibration Date
THERMOSELECT	IQUANT	1	Thermo Select
FRAMEWORKVERSION	LABEL	7.9.0	Framework Version
INSTRUMENTVERSION	LABEL	4.60	Instrument Version
COMPLIANCEVOLTAGE	IQUANT	0	Compliance Voltage
CURVE1	TABLE
	Pt	T	Vf	Im	Vu	Sig	Ach	IERange	Over	Temp
	#	s	V vs. Ref.	A	V	V	V	#	bits	deg C
	0	0.02	-4.74436E-004	-7.14709E-008	0.00000E+000	0.00000E+000	6.96743E-004	9	...........	-327.63
	2	0.06	3.60301E-003	5.30108E-009	0.00000E+000	4.00000E-003	6.94243E-004	7	...........	-327.63
	4	0.1	7.60842E-003	5.29275E-009	0.00000E+000	8.00000E-003	6.85076E-004	7	...........	-327.63
	6	0.14	1.15838E-002	5.38859E-009	0.00000E+000	1.20000E-002	6.91743E-004	7	...........	-327.63
	8	0.18	1.55847E-002	5.25941E-009	0.00000E+000	1.60000E-002	6.85910E-004	7	...........	-327.63
	10	0.22	1.95668E-002	5.15524E-009	0.00000E+000	2.00000E-002	6.82576E-004	7	...........	-327.63
	12	0.26	2.35643E-002	5.28442E-009	0.00000E+000	2.40000E-002	6.87576E-004	7	...........	-327.63
	14	0.3	2.75613E-002	5.23858E-009	0.00000E+000	2.80000E-002	6.85076E-004	7	...........	-327.63
	16	0.34	3.15772E-002	5.15108E-009	0.00000E+000	3.20000E-002	6.80910E-004	7	...........	-327.63
	18	0.38	3.55601E-002	5.24275E-009	0.00000E+000	3.60000E-002	6.75076E-004	7	...........	-327.63
	20	0.42	3.95605E-002	5.30108E-009	0.00000E+000	4.00000E-002	6.85910E-004	7	...........	-327.63
	22	0.46	4.35647E-002	5.29692E-009	0.00000E+000	4.40000E-002	6.90910E-004	7	...........	-327.63
	24	0.5	4.75522E-002	5.13441E-009	0.00000E+000	4.80000E-002	6.85076E-004	7	...........	-327.63
	26	0.54	5.15547E-002	5.16358E-009	0.00000E+000	5.20000E-002	6.81743E-004	7	...........	-327.63
	28	0.58	5.55318E-002	5.19275E-009	0.00000E+000	5.60000E-002	6.93410E-004	7	...........	-327.63
	30	0.62	5.95276E-002	5.25941E-009	0.00000E+000	6.00000E-002	6.86743E-004	7	...........	-327.63
	32	0.66	6.35318E-002	5.15941E-009	0.00000E+000	6.40000E-002	6.87576E-004	7	...........	-327.63
	34	0.7	6.75359E-002	5.21358E-009	0.00000E+000	6.80000E-002	6.90910E-004	7	...........	-327.63
	36	0.74	7.15334E-002	5.32608E-009	0.00000E+000	7.20000E-002	6.81743E-004	7	...........	-327.63
	38	0.78	7.55305E-002	5.23858E-009	0.00000E+000	7.60000E-002	6.89243E-004	7	...........	-327.63
	40	0.82	7.95176E-002	5.25108E-009	0.00000E+000	8.00000E-002	6.81743E-004	7	...........	-327.63
	42	0.86	8.35201E-002	5.27191E-009	0.00000E+000	8.40000E-002	6.69243E-004	7	...........	-327.63
	44	0.9	8.75117E-002	5.10524E-009	0.00000E+000	8.80000E-002	6.80910E-004	7	...........	-327.63
	46	0.94	9.15113E-002	5.05941E-009	0.00000E+000	9.20000E-002	6.76743E-004	7	...........	-327.63
	48	0.98	9.55042E-002	5.10524E-009	0.00000E+000	9.60000E-002	6.83410E-004	7	...........	-327.63
	50	1.02	9.94959E-002	5.15524E-009	0.00000E+000	1.00000E-001	6.81743E-004	7	...........	-327.63
	52	1.06	1.03478E-001	5.01774E-009	0.00000E+000	1.04000E-001	6.85910E-004	7	...........	-327.63
	54	1.1	1.07473E-001	5.15108E-009	0.00000E+000	1.08000E-001	6.80076E-004	7	...........	-327.63
	56	1.14	1.11484E-001	5.11358E-009	0.00000E+000	1.12000E-001	6.90910E-004	7	...........	-327.63
	58	1.18	1.15474E-001	5.03024E-009	0.00000E+000	1.16000E-001	6.89243E-004	7	...........	-327.63
	60	1.22	1.19493E-001	5.30108E-009	0.00000E+000	1.20000E-001	6.88410E-004	7	...........	-327.63
	62	1.26	1.23477E-001	5.33442E-009	0.00000E+000	1.24000E-001	6.83410E-004	7	...........	-327.63
	64	1.3	1.27478E-001	5.40109E-009	0.00000E+000	1.28000E-001	6.91743E-004	7	...........	-327.63
	66	1.34	1.31464E-001	5.29692E-009	0.00000E+000	1.32000E-001	6.80910E-004	7	...........	-327.63
	68	1.38	1.35450E-001	5.36359E-009	0.00000E+000	1.36000E-001	6.95910E-004	7	...........	-327.63
	70	1.42	1.39451E-001	5.05941E-009	0.00000E+000	1.40000E-001	6.93410E-004	7	...........	-327.63
	72	1.46	1.43454E-001	5.09274E-009	0.00000E+000	1.44000E-001	6.83410E-004	7	...........	-327.63
	74	1.5	1.47442E-001	5.23858E-009	0.00000E+000	1.48000E-001	6.87576E-004	7	...........	-327.63
	76	1.54	1.51441E-001	5.30525E-009	0.00000E+000	1.52000E-001	6.91743E-004	7	...........	-327.63
	78	1.58	1.55428E-001	5.30108E-009	0.00000E+000	1.56000E-001	6.68410E-004	7	...........	-327.63
	80	1.62	1.59413E-001	5.49692E-009	0.00000E+000	1.60000E-001	6.77576E-004	7	...........	-327.63
	82	1.66	1.63422E-001	5.33442E-009	0.00000E+000	1.64000E-001	6.90076E-004	7	...........	-327.63
	84	1.7	1.67408E-001	5.20525E-009	0.00000E+000	1.68000E-001	6.94243E-004	7	...........	-327.63
	86	1.74	1.71392E-001	5.19691E-009	0.00000E+000	1.72000E-001	6.69243E-004	7	...........	-327.63
	88	1.78	1.75412E-001	5.40109E-009	0.00000E+000	1.76000E-001	6.90076E-004	7	...........	-327.63
	90	1.82	1.79392E-001	5.40525E-009	0.00000E+000	1.80000E-001	6.91743E-004	7	...........	-327.63
	92	1.86	1.83381E-001	5.20108E-009	0.00000E+000	1.84000E-001	6.86743E-004	7	...........	-327.63
	94	1.9	1.87376E-001	5.27608E-009	0.00000E+000	1.88000E-001	6.92576E-004	7	...........	-327.63
	96	1.94	1.91357E-001	5.20525E-009	0.00000E+000	1.92000E-001	6.86743E-004	7	...........	-327.63
	98	1.98	1.95362E-001	5.31775E-009	0.00000E+000	1.96000E-001	6.90076E-004	7	...........	-327.63
	100	2.02	1.99363E-001	5.08441E-009	0.00000E+000	2.00000E-001	6.89243E-004	7	...........	-327.63
	102	2.06	2.03356E-001	5.24691E-009	0.00000E+000	2.04000E-001	6.85910E-004	7	...........	-327.63
	104	2.1	2.07350E-001	5.18441E-009	0.00000E+000	2.08000E-001	6.78410E-004	7	...........	-327.63
	106	2.14	2.11341E-001	5.25525E-009	0.00000E+000	2.12000E-001	6.74243E-004	7	...........	-327.63
	108	2.18	2.15342E-001	5.14274E-009	0.00000E+000	2.16000E-001	6.88410E-004	7	...........	-327.63
	110	2.22	2.19342E-001	4.91357E-009	0.00000E+000	2.20000E-001	6.97576E-004	7	...........	-327.63
	112	2.26	2.23325E-001	4.98440E-009	0.00000E+000	2.24000E-001	6.84243E-004	7	...........	-327.63
	114	2.3	2.27318E-001	5.02191E-009	0.00000E+000	2.28000E-001	6.78410E-004	7	...........	-327.63
	116	2.34	2.31322E-001	5.03441E-009	0.00000E+000	2.32000E-001	6.88410E-004	7	...........	-327.63
	118	2.38	2.35318E-001	5.12608E-009	0.00000E+000	2.36000E-001	6.78410E-004	7	...........	-327.63
	120	2.42	2.39300E-001	5.13858E-009	0.00000E+000	2.40000E-001	6.77576E-004	7	...........	-327.63
	122	2.46	2.43299E-001	5.32608E-009	0.00000E+000	2.44000E-001	6.75076E-004	7	...........	-327.63
	124	2.5	2.47297E-001	5.21775E-009	0.00000E+000	2.48000E-001	6.80076E-004	7	...........	-327.63
	126	2.54	2.51293E-001	5.14691E-009	0.00000E+000	2.52000E-001	6.93410E-004	7	...........	-327.63
	128	2.58	2.55290E-001	5.19691E-009	0.00000E+000	2.56000E-001	6.89243E-004	7	...........	-327.63
	130	2.62	2.59271E-001	5.07191E-009	0.00000E+000	2.60000E-001	6.77576E-004	7	...........	-327.63
	132	2.66	2.63269E-001	5.03024E-009	0.00000E+000	2.64000E-001	6.85076E-004	7	...........	-327.63
	134	2.7	2.67265E-001	5.02191E-009	0.00000E+000	2.68000E-001	6.94243E-004	7	...........	-327.63
	136	2.74	2.71260E-001	4.90940E-009	0.00000E+000	2.72000E-001	6.82576E-004	7	...........	-327.63
	138	2.78	2.75244E-001	5.10108E-009	0.00000E+000	2.76000E-001	6.75076E-004	7	...........	-327.63
	140	2.82	2.79256E-001	5.01357E-009	0.00000E+000	2.80000E-001	6.88410E-004	7	...........	-327.63
	142	2.86	2.83236E-001	5.20941E-009	0.00000E+000	2.84000E-001	6.83410E-004	7	...........	-327.63
	144	2.9	2.87223E-001	5.06357E-009	0.00000E+000	2.88000E-001	6.79243E-004	7	...........	-327.63
	146	2.94	2.91240E-001	5.12608E-009	0.00000E+000	2.92000E-001	6.88410E-004	7	...........	-327.63
	148	2.98	2.95222E-001	5.05941E-009	0.00000E+000	2.96000E-001	6.83410E-004	7	...........	-327.63
	150	3.02	2.99224E-001	5.11774E-009	0.00000E+000	3.00000E-001	6.83410E-004	7	...........	-327.63
	152	3.06	3.03220E-001	4.97607E-009	0.00000E+000	3.04000E-001	6.88410E-004	7	...........	-327.63
	154	3.1	3.07195E-001	5.14691E-009	0.00000E+000	3.08000E-001	6.95910E-004	7	...........	-327.63
	156	3.14	3.11183E-001	5.13858E-009	0.00000E+000	3.12000E-001	6.83410E-004	7	...........	-327.63
	158	3.18	3.15190E-001	5.03441E-009	0.00000E+000	3.16000E-001	6.80910E-004	7	...........	-327.63
	160	3.22	3.19190E-001	4.90107E-009	0.00000E+000	3.20000E-001	6.93410E-004	7	...........	-327.63
	162	3.26	3.23178E-001	5.16358E-009	0.00000E+000	3.24000E-001	6.80076E-004	7	...........	-327.63
	164	3.3	3.27167E-001	5.13858E-009	0.00000E+000	3.28000E-001	6.75910E-004	7	...........	-327.63
	166	3.34	3.31159E-001	5.03024E-009	0.00000E+000	3.32000E-001	6.91743E-004	7	...........	-327.63
	168	3.38	3.35165E-001	5.15941E-009	0.00000E+000	3.36000E-001	6.79243E-004	7	...........	-327.63
	170	3.42	3.39150E-001	5.17191E-009	0.00000E+000	3.40000E-001	6.81743E-004	7	...........	-327.63
	172	3.46	3.43153E-001	5.00524E-009	0.00000E+000	3.44000E-001	6.80910E-004	7	...........	-327.63
	174	3.5	3.47140E-001	5.08857E-009	0.00000E+000	3.48000E-001	6.90910E-004	7	...........	-327.63
	176	3.54	3.51134E-001	5.23441E-009	0.00000E+000	3.52000E-001	6.92576E-004	7	...........	-327.63
	178	3.58	3.55145E-001	5.16774E-009	0.00000E+000	3.56000E-001	6.85910E-004	7	...........	-327.63
	180	3.62	3.59094E-001	4.98857E-009	0.00000E+000	3.60000E-001	7.01743E-004	7	...........	-327.63
	182	3.66	3.63105E-001	5.23858E-009	0.00000E+000	3.64000E-001	6.79243E-004	7	...........	-327.63
	184	3.7	3.67103E-001	5.27191E-009	0.00000E+000	3.68000E-001	6.85076E-004	7	...........	-327.63
	186	3.74	3.71095E-001	5.17191E-009	0.00000E+000	3.72000E-001	6.88410E-004	7	...........	-327.63
	188	3.78	3.75099E-001	5.07607E-009	0.00000E+000	3.76000E-001	6.96743E-004	7	...........	-327.63
	190	3.82	3.79098E-001	5.07607E-009	0.00000E+000	3.80000E-001	6.86743E-004	7	...........	-327.63
	192	3.86	3.83078E-001	5.23441E-009	0.00000E+000	3.84000E-001	6.77576E-004	7	...........	-327.63
	194	3.9	3.87083E-001	4.97190E-009	0.00000E+000	3.88000E-001	6.81743E-004	7	...........	-327.63
	196	3.94	3.91081E-001	5.04274E-009	0.00000E+000	3.92000E-001	6.89243E-004	7	...........	-327.63
	198	3.98	3.95057E-001	5.06774E-009	0.00000E+000	3.96000E-001	6.98410E-004	7	...........	-327.63
	200	4.02	3.99054E-001	4.88440E-009	0.00000E+000	4.00000E-001	6.91743E-004	7	...........	-327.63
	202	4.06	4.03045E-001	5.15524E-009	0.00000E+000	4.04000E-001	6.85910E-004	7	...........	-327.63
	204	4.1	4.07044E-001	5.08857E-009	0.00000E+000	4.08000E-001	6.85910E-004	7	...........	-327.63
	206	4.14	4.11016E-001	5.15108E-009	0.00000E+000	4.12000E-001	6.89243E-004	7	...........	-327.63
	208	4.18	4.15005E-001	5.15941E-009	0.00000E+000	4.16000E-001	6.81743E-004	7	...........	-327.63
	210	4.22	4.18999E-001	5.32192E-009	0.00000E+000	4.20000E-001	6.90076E-004	7	...........	-327.63
	212	4.26	4.22996E-001	5.41359E-009	0.00000E+000	4.24000E-001	6.90076E-004	7	...........	-327.63
	214	4.3	4.26987E-001	5.43442E-009	0.00000E+000	4.28000E-001	6.82576E-004	7	...........	-327.63
	216	4.34	4.30987E-001	5.21358E-009	0.00000E+000	4.32000E-001	6.88410E-004	7	...........	-327.63
	218	4.38	4.34980E-001	5.29275E-009	0.00000E+000	4.36000E-001	6.87576E-004	7	...........	-327.63
	220	4.42	4.38963E-001	5.30525E-009	0.00000E+000	4.40000E-001	6.82576E-004	7	...........	-327.63
	222	4.46	4.42962E-001	5.42609E-009	0.00000E+000	4.44000E-001	6.85076E-004	7	...........	-327.63
	224	4.5	4.46958E-001	5.34275E-009	0.00000E+000	4.48000E-001	6.84243E-004	7	...........	-327.63
	226	4.54	4.50941E-001	5.37192E-009	0.00000E+000	4.52000E-001	6.96743E-004	7	...........	-327.63
	228	4.58	4.54954E-001	5.35108E-009	0.00000E+000	4.56000E-001	6.95910E-004	7	...........	-327.63
	230	4.62	4.58953E-001	5.39692E-009	0.00000E+000	4.60000E-001	6.87576E-004	7	...........	-327.63
	232	4.66	4.62916E-001	5.33025E-009	0.00000E+000	4.64000E-001	6.87576E-004	7	...........	-327.63
	234	4.7	4.66913E-001	5.41359E-009	0.00000E+000	4.68000E-001	6.80910E-004	7	...........	-327.63
	236	4.74	4.70923E-001	5.33025E-009	0.00000E+000	4.72000E-001	6.87576E-004	7	...........	-327.63
	238	4.78	4.74906E-001	5.30525E-009	0.00000E+000	4.76000E-001	6.86743E-004	7	...........	-327.63
	240	4.82	4.78910E-001	5.52192E-009	0.00000E+000	4.80000E-001	6.75910E-004	7	...........	-327.63
	242	4.86	4.82902E-001	5.49276E-009	0.00000E+000	4.84000E-001	6.79243E-004	7	...........	-327.63
	244	4.9	4.86877E-001	5.39692E-009	0.00000E+000	4.88000E-001	6.82576E-004	7	...........	-327.63
	246	4.94	4.90881E-001	5.43442E-009	0.00000E+000	4.92000E-001	6.85910E-004	7	...........	-327.63
	248	4.98	4.94879E-001	5.36775E-009	0.00000E+000	4.96000E-001	6.88410E-004	7	...........	-327.63
	250	5.02	4.98881E-001	5.61776E-009	0.00000E+000	5.00000E-001	6.80076E-004	7	...........	-327.63
	252	5.06	4.94890E-001	5.54693E-009	0.00000E+000	4.96000E-001	6.80910E-004	7	...........	-327.63
	254	5.1	4.90879E-001	5.62609E-009	0.00000E+000	4.92000E-001	6.80076E-004	7	...........	-327.63
	256	5.14	4.86885E-001	5.50942E-009	0.00000E+000	4.88000E-001	6.73410E-004	7	...........	-327.63
	258	5.18	4.82900E-001	5.63443E-009	0.00000E+000	4.84000E-001	6.80910E-004	7	...........	-327.63
	260	5.22	4.78902E-001	5.55109E-009	0.00000E+000	4.80000E-001	6.98410E-004	7	...........	-327.63
	262	5.26	4.74894E-001	5.53442E-009	0.00000E+000	4.76000E-001	6.87576E-004	7	...........	-327.63
	264	5.3	4.70909E-001	5.46776E-009	0.00000E+000	4.72000E-001	6.94243E-004	7	...........	-327.63
	266	5.34	4.66901E-001	5.65110E-009	0.00000E+000	4.68000E-001	6.80910E-004	7	...........	-327.63
	268	5.38	4.62908E-001	5.51359E-009	0.00000E+000	4.64000E-001	6.75910E-004	7	...........	-327.63
	270	5.42	4.58930E-001	5.88860E-009	0.00000E+000	4.60000E-001	6.85076E-004	7	...........	-327.63
	272	5.46	4.54936E-001	5.86777E-009	0.00000E+000	4.56000E-001	6.85076E-004	7	...........	-327.63
	274	5.5	4.50934E-001	5.88027E-009	0.00000E+000	4.52000E-001	6.91743E-004	7	...........	-327.63
	276	5.54	4.46938E-001	5.49276E-009	0.00000E+000	4.48000E-001	6.77576E-004	7	...........	-327.63
	278	5.58	4.42947E-001	5.77610E-009	0.00000E+000	4.44000E-001	6.80076E-004	7	...........	-327.63
	280	5.62	4.38945E-001	5.81777E-009	0.00000E+000	4.40000E-001	6.77576E-004	7	...........	-327.63
	282	5.66	4.34950E-001	5.78443E-009	0.00000E+000	4.36000E-001	6.84243E-004	7	...........	-327.63
	284	5.7	4.30950E-001	5.94694E-009	0.00000E+000	4.32000E-001	6.84243E-004	7	...........	-327.63
	286	5.74	4.26960E-001	6.01361E-009	0.00000E+000	4.28000E-001	6.85076E-004	7	...........	-327.63
	288	5.78	4.22968E-001	5.84694E-009	0.00000E+000	4.24000E-001	6.88410E-004	7	...........	-327.63
	290	5.82	4.18973E-001	5.80944E-009	0.00000E+000	4.20000E-001	6.81743E-004	7	...........	-327.63
	292	5.86	4.14970E-001	5.78443E-009	0.00000E+000	4.16000E-001	6.75910E-004	7	...........	-327.63
	294	5.9	4.10979E-001	5.74277E-009	0.00000E+000	4.12000E-001	6.88410E-004	7	...........	-327.63
	296	5.94	4.07011E-001	5.94694E-009	0.00000E+000	4.08000E-001	6.92576E-004	7	...........	-327.63
	298	5.98	4.03022E-001	5.96777E-009	0.00000E+000	4.04000E-001	6.84243E-004	7	...........	-327.63
	300	6.02	3.99015E-001	6.00111E-009	0.00000E+000	4.00000E-001	6.89243E-004	7	...........	-327.63
	302	6.06	3.95025E-001	5.94277E-009	0.00000E+000	3.96000E-001	6.89243E-004	7	...........	-327.63
	304	6.1	3.91025E-001	5.86777E-009	0.00000E+000	3.92000E-001	6.89243E-004	7	...........	-327.63
	306	6.14	3.87031E-001	5.80527E-009	0.00000E+000	3.88000E-001	6.80076E-004	7	...........	-327.63
	308	6.18	3.83042E-001	5.88444E-009	0.00000E+000	3.84000E-001	6.89243E-004	7	...........	-327.63
	310	6.22	3.79047E-001	5.82610E-009	0.00000E+000	3.80000E-001	6.83410E-004	7	...........	-327.63
	312	6.26	3.75041E-001	5.69693E-009	0.00000E+000	3.76000E-001	6.87576E-004	7	...........	-327.63
	314	6.3	3.71048E-001	5.70943E-009	0.00000E+000	3.72000E-001	6.93410E-004	7	...........	-327.63
	316	6.34	3.67061E-001	5.60526E-009	0.00000E+000	3.68000E-001	6.93410E-004	7	...........	-327.63
	318	6.38	3.63061E-001	5.74693E-009	0.00000E+000	3.64000E-001	6.68410E-004	7	...........	-327.63
	320	6.42	3.59073E-001	5.58859E-009	0.00000E+000	3.60000E-001	6.86743E-004	7	...........	-327.63
	322	6.46	3.55093E-001	5.64276E-009	0.00000E+000	3.56000E-001	6.85910E-004	7	...........	-327.63
	324	6.5	3.51071E-001	5.60109E-009	0.00000E+000	3.52000E-001	6.86743E-004	7	...........	-327.63
	326	6.54	3.47095E-001	5.50526E-009	0.00000E+000	3.48000E-001	6.95076E-004	7	...........	-327.63
	328	6.58	3.43099E-001	5.34692E-009	0.00000E+000	3.44000E-001	6.83410E-004	7	...........	-327.63
	330	6.62	3.39086E-001	5.64693E-009	0.00000E+000	3.40000E-001	6.77576E-004	7	...........	-327.63
	332	6.66	3.35100E-001	5.54276E-009	0.00000E+000	3.36000E-001	6.92576E-004	7	...........	-327.63
	334	6.7	3.31119E-001	5.61359E-009	0.00000E+000	3.32000E-001	6.80910E-004	7	...........	-327.63
	336	6.74	3.27120E-001	5.75110E-009	0.00000E+000	3.28000E-001	6.89243E-004	7	...........	-327.63
	338	6.78	3.23125E-001	5.69276E-009	0.00000E+000	3.24000E-001	6.91743E-004	7	...........	-327.63
	340	6.82	3.19121E-001	5.62193E-009	0.00000E+000	3.20000E-001	6.78410E-004	7	...........	-327.63
	342	6.86	3.15141E-001	5.63443E-009	0.00000E+000	3.16000E-001	6.86743E-004	7	...........	-327.63
	344	6.9	3.11134E-001	5.70110E-009	0.00000E+000	3.12000E-001	6.88410E-004	7	...........	-327.63
	346	6.94	3.07153E-001	5.84277E-009	0.00000E+000	3.08000E-001	6.89243E-004	7	...........	-327.63
	348	6.98	3.03180E-001	5.90110E-009	0.00000E+000	3.04000E-001	6.90910E-004	7	...........	-327.63
	350	7.02	2.99171E-001	5.94694E-009	0.00000E+000	3.00000E-001	6.92576E-004	7	...........	-327.63
	352	7.06	2.95181E-001	5.78027E-009	0.00000E+000	2.96000E-001	6.85076E-004	7	...........	-327.63
	354	7.1	2.91193E-001	6.01778E-009	0.00000E+000	2.92000E-001	6.85910E-004	7	...........	-327.63
	356	7.14	2.87188E-001	5.92611E-009	0.00000E+000	2.88000E-001	6.84243E-004	7	...........	-327.63
	358	7.18	2.83198E-001	5.86360E-009	0.00000E+000	2.84000E-001	6.77576E-004	7	...........	-327.63
	360	7.22	2.79209E-001	6.00944E-009	0.00000E+000	2.80000E-001	6.77576E-004	7	...........	-327.63
	362	7.26	2.75208E-001	6.03028E-009	0.00000E+000	2.76000E-001	6.91743E-004	7	...........	-327.63
	364	7.3	2.71227E-001	6.09695E-009	0.00000E+000	2.72000E-001	6.81743E-004	7	...........	-327.63
	366	7.34	2.67228E-001	6.06778E-009	0.00000E+000	2.68000E-001	6.91743E-004	7	...........	-327.63
	368	7.38	2.63228E-001	5.81777E-009	0.00000E+000	2.64000E-001	6.88410E-004	7	...........	-327.63
	370	7.42	2.59230E-001	5.89694E-009	0.00000E+000	2.60000E-001	6.69243E-004	7	...........	-327.63
	372	7.46	2.55254E-001	5.94694E-009	0.00000E+000	2.56000E-001	6.96743E-004	7	...........	-327.63
	374	7.5	2.51261E-001	5.97194E-009	0.00000E+000	2.52000E-001	6.92576E-004	7	...........	-327.63
	376	7.54	2.47263E-001	5.88444E-009	0.00000E+000	2.48000E-001	6.90910E-004	7	...........	-327.63
	378	7.58	2.43265E-001	5.90944E-009	0.00000E+000	2.44000E-001	6.83410E-004	7	...........	-327.63
	380	7.62	2.39280E-001	5.93444E-009	0.00000E+000	2.40000E-001	6.80910E-004	7	...........	-327.63
	382	7.66	2.35276E-001	5.78443E-009	0.00000E+000	2.36000E-001	6.80910E-004	7	...........	-327.63
	384	7.7	2.31272E-001	5.78443E-009	0.00000E+000	2.32000E-001	6.74243E-004	7	...........	-327.63
	386	7.74	2.27282E-001	5.78443E-009	0.00000E+000	2.28000E-001	6.82576E-004	7	...........	-327.63
	388	7.78	2.23292E-001	5.82194E-009	0.00000E+000	2.24000E-001	6.81743E-004	7	...........	-327.63
	390	7.82	2.19290E-001	5.69693E-009	0.00000E+000	2.20000E-001	6.94243E-004	7	...........	-327.63
	392	7.86	2.15298E-001	5.80110E-009	0.00000E+000	2.16000E-001	7.01743E-004	7	...........	-327.63
	394	7.9	2.11313E-001	5.67610E-009	0.00000E+000	2.12000E-001	6.85076E-004	7	...........	-327.63
	396	7.94	2.07322E-001	5.75527E-009	0.00000E+000	2.08000E-001	6.81743E-004	7	...........	-327.63
	398	7.98	2.03330E-001	5.64276E-009	0.00000E+000	2.04000E-001	6.87576E-004	7	...........	-327.63
	400	8.02	1.99342E-001	5.75943E-009	0.00000E+000	2.00000E-001	6.93410E-004	7	...........	-327.63
	402	8.06	1.95355E-001	5.68026E-009	0.00000E+000	1.96000E-001	6.95910E-004	7	...........	-327.63
	404	8.1	1.91351E-001	5.87194E-009	0.00000E+000	1.92000E-001	6.97576E-004	7	...........	-327.63
	406	8.14	1.87361E-001	5.91777E-009	0.00000E+000	1.88000E-001	6.76743E-004	7	...........	-327.63
	408	8.18	1.83359E-001	5.77193E-009	0.00000E+000	1.84000E-001	6.81743E-004	7	...........	-327.63
	410	8.22	1.79377E-001	5.80527E-009	0.00000E+000	1.80000E-001	6.85910E-004	7	...........	-327.63
	412	8.26	1.75383E-001	5.80110E-009	0.00000E+000	1.76000E-001	6.85076E-004	7	...........	-327.63
	414	8.3	1.71384E-001	5.83444E-009	0.00000E+000	1.72000E-001	7.00910E-004	7	...........	-327.63
	416	8.34	1.67396E-001	5.73443E-009	0.00000E+000	1.68000E-001	6.86743E-004	7	...........	-327.63
	418	8.38	1.63394E-001	5.66360E-009	0.00000E+000	1.64000E-001	6.88410E-004	7	...........	-327.63
	420	8.42	1.59403E-001	5.61359E-009	0.00000E+000	1.60000E-001	6.82576E-004	7	...........	-327.63
	422	8.46	1.55411E-001	5.71360E-009	0.00000E+000	1.56000E-001	6.74243E-004	7	...........	-327.63
	424	8.5	1.51429E-001	5.73860E-009	0.00000E+000	1.52000E-001	6.86743E-004	7	...........	-327.63
	426	8.54	1.47440E-001	5.86360E-009	0.00000E+000	1.48000E-001	6.88410E-004	7	...........	-327.63
	428	8.58	1.43433E-001	5.71776E-009	0.00000E+000	1.44000E-001	6.90076E-004	7	...........	-327.63
	430	8.62	1.39464E-001	5.64693E-009	0.00000E+000	1.40000E-001	6.81743E-004	7	...........	-327.63
	432	8.66	1.35457E-001	5.68860E-009	0.00000E+000	1.36000E-001	6.77576E-004	7	...........	-327.63
	434	8.7	1.31476E-001	5.61776E-009	0.00000E+000	1.32000E-001	6.92576E-004	7	...........	-327.63
	436	8.74	1.27476E-001	5.62609E-009	0.00000E+000	1.28000E-001	6.85076E-004	7	...........	-327.63
	438	8.78	1.23488E-001	5.69693E-009	0.00000E+000	1.24000E-001	6.92576E-004	7	...........	-327.63
	440	8.82	1.19489E-001	5.58443E-009	0.00000E+000	1.20000E-001	6.92576E-004	7	...........	-327.63
	442	8.86	1.15482E-001	5.59276E-009	0.00000E+000	1.16000E-001	6.79243E-004	7	...........	-327.63
	444	8.9	1.11508E-001	5.70110E-009	0.00000E+000	1.12000E-001	6.85910E-004	7	...........	-327.63
	446	8.94	1.07510E-001	5.77610E-009	0.00000E+000	1.08000E-001	6.87576E-004	7	...........	-327.63
	448	8.98	1.03506E-001	5.87194E-009	0.00000E+000	1.04000E-001	6.84243E-004	7	...........	-327.63
	450	9.02	9.95438E-002	5.75527E-009	0.00000E+000	1.00000E-001	6.91743E-004	7	...........	-327.63
	452	9.06	9.55476E-002	5.80110E-009	0.00000E+000	9.60000E-002	6.90910E-004	7	...........	-327.63
	454	9.1	9.15522E-002	5.70526E-009	0.00000E+000	9.20000E-002	6.85910E-004	7	...........	-327.63
	456	9.14	8.75480E-002	5.80944E-009	0.00000E+000	8.80000E-002	6.85910E-004	7	...........	-327.63
	458	9.18	8.35497E-002	5.56776E-009	0.00000E+000	8.40000E-002	6.85910E-004	7	...........	-327.63
	460	9.22	7.95588E-002	5.68860E-009	0.00000E+000	8.00000E-002	6.83410E-004	7	...........	-327.63
	462	9.26	7.55776E-002	5.84694E-009	0.00000E+000	7.60000E-002	6.83410E-004	7	...........	-327.63
	464	9.3	7.15818E-002	5.63860E-009	0.00000E+000	7.20000E-002	6.99243E-004	7	...........	-327.63
	466	9.34	6.75930E-002	5.65943E-009	0.00000E+000	6.80000E-002	6.89243E-004	7	...........	-327.63
	468	9.38	6.35972E-002	5.55109E-009	0.00000E+000	6.40000E-002	6.81743E-004	7	...........	-327.63
	470	9.42	5.96126E-002	5.47609E-009	0.00000E+000	6.00000E-002	6.85076E-004	7	...........	-327.63
	472	9.46	5.56193E-002	5.44692E-009	0.00000E+000	5.60000E-002	6.88410E-004	7	...........	-327.63
	474	9.5	5.16155E-002	5.63026E-009	0.00000E+000	5.20000E-002	6.90910E-004	7	...........	-327.63
	476	9.54	4.76443E-002	5.52192E-009	0.00000E+000	4.80000E-002	6.80910E-004	7	...........	-327.63
	478	9.58	4.36455E-002	5.53859E-009	0.00000E+000	4.40000E-002	6.89243E-004	7	...........	-327.63
	480	9.62	3.96559E-002	5.53859E-009	0.00000E+000	4.00000E-002	6.87576E-004	7	...........	-327.63
	482	9.66	3.56659E-002	5.65943E-009	0.00000E+000	3.60000E-002	6.81743E-004	7	...........	-327.63
	484	9.7	3.16584E-002	5.47192E-009	0.00000E+000	3.20000E-002	6.80910E-004	7	...........	-327.63
	486	9.74	2.76718E-002	5.50109E-009	0.00000E+000	2.80000E-002	6.83410E-004	7	...........	-327.63
	488	9.78	2.36930E-002	5.58443E-009	0.00000E+000	2.40000E-002	6.83410E-004	7	...........	-327.63
	490	9.82	1.97051E-002	5.34275E-009	0.00000E+000	2.00000E-002	6.78410E-004	7	...........	-327.63
	492	9.86	1.57076E-002	5.47609E-009	0.00000E+000	1.60000E-002	6.77576E-004	7	...........	-327.63
	494	9.9	1.17059E-002	5.40109E-009	0.00000E+000	1.20000E-002	6.90076E-004	7	...........	-327.63
	496	9.94	7.72217E-003	5.37609E-009	0.00000E+000	8.00000E-003	6.89243E-004	7	...........	-327.63
	498	9.98	3.72342E-003	5.27191E-009	0.00000E+000	4.00000E-003	6.88410E-004	7	...........	-327.63
	500	10.02	-2.89493E-004	5.31775E-009	0.00000E+000	0.00000E+000	6.87576E-004	7	...........	-327.63
	502	10.06	-4.27241E-003	5.23025E-009	0.00000E+000	-4.00000E-003	6.91743E-004	7	...........	-327.63
	504	10.1	-8.26866E-003	5.21358E-009	0.00000E+000	-8.00000E-003	6.89243E-004	7	...........	-327.63
	506	10.14	-1.22637E-002	5.24275E-009	0.00000E+000	-1.20000E-002	6.97576E-004	7	...........	-327.63
	508	10.18	-1.62503E-002	5.34692E-009	0.00000E+000	-1.60000E-002	6.97576E-004	7	...........	-327.63
	510	10.22	-2.02399E-002	5.26358E-009	0.00000E+000	-2.00000E-002	7.03410E-004	7	...........	-327.63
	512	10.26	-2.42370E-002	5.04691E-009	0.00000E+000	-2.40000E-002	6.80910E-004	7	...........	-327.63
	514	10.3	-2.82145E-002	5.07191E-009	0.00000E+000	-2.80000E-002	6.91743E-004	7	...........	-327.63
	516	10.34	-3.22091E-002	5.21358E-009	0.00000E+000	-3.20000E-002	6.88410E-004	7	...........	-327.63
	518	10.38	-3.61970E-002	5.04274E-009	0.00000E+000	-3.60000E-002	6.85076E-004	7	...........	-327.63
	520	10.42	-4.01841E-002	4.99274E-009	0.00000E+000	-4.00000E-002	7.03410E-004	7	...........	-327.63
	522	10.46	-4.41891E-002	4.91357E-009	0.00000E+000	-4.40000E-002	7.01743E-004	7	...........	-327.63
	524	10.5	-4.81616E-002	4.77606E-009	0.00000E+000	-4.80000E-002	6.81743E-004	7	...........	-327.63
	526	10.54	-5.21474E-002	4.88857E-009	0.00000E+000	-5.20000E-002	7.05076E-004	7	...........	-327.63
	528	10.58	-5.61257E-002	4.77190E-009	0.00000E+000	-5.60000E-002	7.03410E-004	7	...........	-327.63
	530	10.62	-6.01295E-002	4.78440E-009	0.00000E+000	-6.00000E-002	6.89243E-004	7	...........	-327.63
	532	10.66	-6.41282E-002	4.70939E-009	0.00000E+000	-6.40000E-002	6.80076E-004	7	...........	-327.63
	534	10.7	-6.81153E-002	4.62189E-009	0.00000E+000	-6.80000E-002	6.79243E-004	7	...........	-327.63
	536	10.74	-7.20995E-002	4.44272E-009	0.00000E+000	-7.20000E-002	6.78410E-004	7	...........	-327.63
	538	10.78	-7.60962E-002	4.49272E-009	0.00000E+000	-7.60000E-002	6.97576E-004	7	...........	-327.63
	540	10.82	-8.00824E-002	4.35521E-009	0.00000E+000	-8.00000E-002	6.88410E-004	7	...........	-327.63
	542	10.86	-8.40691E-002	4.31771E-009	0.00000E+000	-8.40000E-002	6.97576E-004	7	...........	-327.63
	544	10.9	-8.80653E-002	4.23438E-009	0.00000E+000	-8.80000E-002	6.94243E-004	7	...........	-327.63
	546	10.94	-9.20487E-002	4.37605E-009	0.00000E+000	-9.20000E-002	6.90910E-004	7	...........	-327.63
	548	10.98	-9.60503E-002	4.30938E-009	0.00000E+000	-9.60000E-002	6.90076E-004	7	...........	-327.63
	550	11.02	-1.00037E-001	4.18854E-009	0.00000E+000	-1.00000E-001	6.89243E-004	7	...........	-327.63
	552	11.06	-1.04003E-001	4.34271E-009	0.00000E+000	-1.04000E-001	6.85076E-004	7	...........	-327.63
	554	11.1	-1.07998E-001	4.28021E-009	0.00000E+000	-1.08000E-001	6.95910E-004	7	...........	-327.63
	556	11.14	-1.11993E-001	4.15937E-009	0.00000E+000	-1.12000E-001	6.87576E-004	7	...........	-327.63
	558	11.18	-1.15961E-001	4.12187E-009	0.00000E+000	-1.16000E-001	6.95910E-004	7	...........	-327.63
	560	11.22	-1.19970E-001	4.00937E-009	0.00000E+000	-1.20000E-001	6.88410E-004	7	...........	-327.63
	562	11.26	-1.23968E-001	4.09687E-009	0.00000E+000	-1.24000E-001	6.90910E-004	7	...........	-327.63
	564	11.3	-1.27955E-001	3.95103E-009	0.00000E+000	-1.28000E-001	6.99243E-004	7	...........	-327.63
	566	11.34	-1.31937E-001	3.89270E-009	0.00000E+000	-1.32000E-001	6.92576E-004	7	...........	-327.63
	568	11.38	-1.35939E-001	4.03020E-009	0.00000E+000	-1.36000E-001	6.94243E-004	7	...........	-327.63
	570	11.42	-1.39922E-001	3.78019E-009	0.00000E+000	-1.40000E-001	7.00076E-004	7	...........	-327.63
	572	11.46	-1.43909E-001	3.73436E-009	0.00000E+000	-1.44000E-001	6.82576E-004	7	...........	-327.63
	574	11.5	-1.47905E-001	3.86770E-009	0.00000E+000	-1.48000E-001	6.90910E-004	7	...........	-327.63
	576	11.54	-1.51891E-001	3.73852E-009	0.00000E+000	-1.52000E-001	6.90076E-004	7	...........	-327.63
	578	11.58	-1.55859E-001	3.38018E-009	0.00000E+000	-1.56000E-001	6.94243E-004	7	...........	-327.63
	580	11.62	-1.59841E-001	3.68436E-009	0.00000E+000	-1.60000E-001	6.81743E-004	7	...........	-327.63
	582	11.66	-1.63837E-001	3.71352E-009	0.00000E+000	-1.64000E-001	6.96743E-004	7	...........	-327.63
	584	11.7	-1.67829E-001	3.39268E-009	0.00000E+000	-1.68000E-001	6.92576E-004	7	...........	-327.63
	586	11.74	-1.71819E-001	3.49268E-009	0.00000E+000	-1.72000E-001	6.95076E-004	7	...........	-327.63
	588	11.78	-1.75814E-001	3.46351E-009	0.00000E+000	-1.76000E-001	6.86743E-004	7	...........	-327.63
	590	11.82	-1.79808E-001	3.43018E-009	0.00000E+000	-1.80000E-001	6.87576E-004	7	...........	-327.63
	592	11.86	-1.83784E-001	3.34268E-009	0.00000E+000	-1.84000E-001	6.94243E-004	7	...........	-327.63
	594	11.9	-1.87774E-001	3.43435E-009	0.00000E+000	-1.88000E-001	6.90076E-004	7	...........	-327.63
	596	11.94	-1.91786E-001	3.44268E-009	0.00000E+000	-1.92000E-001	6.97576E-004	7	...........	-327.63
	598	11.98	-1.95758E-001	3.39684E-009	0.00000E+000	-1.96000E-001	6.86743E-004	7	...........	-327.63
	600	12.02	-1.99749E-001	3.33434E-009	0.00000E+000	-2.00000E-001	6.86743E-004	7	...........	-327.63
	602	12.06	-2.03732E-001	3.30101E-009	0.00000E+000	-2.04000E-001	6.88410E-004	7	...........	-327.63
	604	12.1	-2.07712E-001	3.16350E-009	0.00000E+000	-2.08000E-001	6.90910E-004	7	...........	-327.63
	606	12.14	-2.11698E-001	3.10100E-009	0.00000E+000	-2.12000E-001	6.89243E-004	7	...........	-327.63
	608	12.18	-2.15683E-001	2.96766E-009	0.00000E+000	-2.16000E-001	6.95076E-004	7	...........	-327.63
	610	12.22	-2.19667E-001	2.85932E-009	0.00000E+000	-2.20000E-001	6.93410E-004	7	...........	-327.63
	612	12.26	-2.23664E-001	3.13850E-009	0.00000E+000	-2.24000E-001	6.88410E-004	7	...........	-327.63
	614	12.3	-2.27636E-001	3.03850E-009	0.00000E+000	-2.28000E-001	6.80076E-004	7	...........	-327.63
	616	12.34	-2.31627E-001	2.99683E-009	0.00000E+000	-2.32000E-001	6.81743E-004	7	...........	-327.63
	618	12.38	-2.35621E-001	2.82599E-009	0.00000E+000	-2.36000E-001	6.85910E-004	7	...........	-327.63
	620	12.42	-2.39617E-001	2.80099E-009	0.00000E+000	-2.40000E-001	6.93410E-004	7	...........	-327.63
	622	12.46	-2.43594E-001	2.76765E-009	0.00000E+000	-2.44000E-001	6.91743E-004	7	...........	-327.63
	624	12.5	-2.47580E-001	2.70515E-009	0.00000E+000	-2.48000E-001	6.91743E-004	7	...........	-327.63
	626	12.54	-2.51565E-001	2.81766E-009	0.00000E+000	-2.52000E-001	6.88410E-004	7	...........	-327.63
	628	12.58	-2.55547E-001	2.69682E-009	0.00000E+000	-2.56000E-001	6.94243E-004	7	...........	-327.63
	630	12.62	-2.59523E-001	2.47598E-009	0.00000E+000	-2.60000E-001	6.90910E-004	7	...........	-327.63
	632	12.66	-2.63507E-001	2.57598E-009	0.00000E+000	-2.64000E-001	6.94243E-004	7	...........	-327.63
	634	12.7	-2.67510E-001	2.45931E-009	0.00000E+000	-2.68000E-001	6.99243E-004	7	...........	-327.63
	636	12.74	-2.71485E-001	2.51765E-009	0.00000E+000	-2.72000E-001	6.89243E-004	7	...........	-327.63
	638	12.78	-2.75459E-001	2.47598E-009	0.00000E+000	-2.76000E-001	6.85076E-004	7	...........	-327.63
	640	12.82	-2.79458E-001	2.28014E-009	0.00000E+000	-2.80000E-001	6.88410E-004	7	...........	-327.63
	642	12.86	-2.83438E-001	2.33847E-009	0.00000E+000	-2.84000E-001	6.94243E-004	7	...........	-327.63
	644	12.9	-2.87416E-001	2.15097E-009	0.00000E+000	-2.88000E-001	6.96743E-004	7	...........	-327.63
	646	12.94	-2.91397E-001	2.12180E-009	0.00000E+000	-2.92000E-001	6.85910E-004	7	...........	-327.63
	648	12.98	-2.95397E-001	2.07596E-009	0.00000E+000	-2.96000E-001	6.94243E-004	7	...........	-327.63
	650	13.02	-2.99384E-001	2.05096E-009	0.00000E+000	-3.00000E-001	6.87576E-004	7	...........	-327.63
	652	13.06	-3.03373E-001	2.05096E-009	0.00000E+000	-3.04000E-001	6.82576E-004	7	...........	-327.63
	654	13.1	-3.07360E-001	1.80929E-009	0.00000E+000	-3.08000E-001	6.82576E-004	7	...........	-327.63
	656	13.14	-3.11318E-001	1.77178E-009	0.00000E+000	-3.12000E-001	6.93410E-004	7	...........	-327.63
	658	13.18	-3.15301E-001	2.02179E-009	0.00000E+000	-3.16000E-001	6.92576E-004	7	...........	-327.63
	660	13.22	-3.19301E-001	1.76345E-009	0.00000E+000	-3.20000E-001	6.88410E-004	7	...........	-327.63
	662	13.26	-3.23257E-001	1.55511E-009	0.00000E+000	-3.24000E-001	6.85910E-004	7	...........	-327.63
	664	13.3	-3.27263E-001	1.55928E-009	0.00000E+000	-3.28000E-001	6.98410E-004	7	...........	-327.63
	666	13.34	-3.31262E-001	1.37594E-009	0.00000E+000	-3.32000E-001	6.85910E-004	7	...........	-327.63
	668	13.38	-3.35218E-001	1.38427E-009	0.00000E+000	-3.36000E-001	6.93410E-004	7	...........	-327.63
	670	13.42	-3.39197E-001	1.31760E-009	0.00000E+000	-3.40000E-001	6.86743E-004	7	...........	-327.63
	672	13.46	-3.43200E-001	1.30510E-009	0.00000E+000	-3.44000E-001	6.90910E-004	7	...........	-327.63
	674	13.5	-3.47172E-001	1.30093E-009	0.00000E+000	-3.48000E-001	7.01743E-004	7	...........	-327.63
	676	13.54	-3.51158E-001	1.15093E-009	0.00000E+000	-3.52000E-001	6.90910E-004	7	...........	-327.63
	678	13.58	-3.55160E-001	1.05092E-009	0.00000E+000	-3.56000E-001	6.84243E-004	7	...........	-327.63
	680	13.62	-3.59112E-001	1.00509E-009	0.00000E+000	-3.60000E-001	6.95910E-004	7	...........	-327.63
	682	13.66	-3.63101E-001	9.67588E-010	0.00000E+000	-3.64000E-001	6.84243E-004	7	...........	-327.63
	684	13.7	-3.67079E-001	8.42583E-010	0.00000E+000	-3.68000E-001	6.89243E-004	7	...........	-327.63
	686	13.74	-3.71064E-001	6.34242E-010	0.00000E+000	-3.72000E-001	6.85076E-004	7	...........	-327.63
	688	13.78	-3.75050E-001	6.46742E-010	0.00000E+000	-3.76000E-001	6.97576E-004	7	...........	-327.63
	690	13.82	-3.79033E-001	7.00911E-010	0.00000E+000	-3.80000E-001	6.85910E-004	7	...........	-327.63
	692	13.86	-3.83022E-001	5.55072E-010	0.00000E+000	-3.84000E-001	6.81743E-004	7	...........	-327.63
	694	13.9	-3.87000E-001	4.42568E-010	0.00000E+000	-3.88000E-001	6.84243E-004	7	...........	-327.63
	696	13.94	-3.90976E-001	3.96733E-010	0.00000E+000	-3.92000E-001	6.90076E-004	7	...........	-327.63
	698	13.98	-3.94960E-001	1.92559E-010	0.00000E+000	-3.96000E-001	6.85076E-004	7	...........	-327.63
	700	14.02	-3.98955E-001	1.46724E-010	0.00000E+000	-4.00000E-001	6.87576E-004	7	...........	-327.63
	702	14.06	-4.02930E-001	2.25893E-010	0.00000E+000	-4.04000E-001	6.82576E-004	7	...........	-327.63
	704	14.1	-4.06926E-001	1.17556E-010	0.00000E+000	-4.08000E-001	6.91743E-004	7	...........	-327.63
	706	14.14	-4.10884E-001	1.50891E-010	0.00000E+000	-4.12000E-001	6.83410E-004	7	...........	-327.63
	708	14.18	-4.14873E-001	-2.24123E-010	0.00000E+000	-4.16000E-001	6.95910E-004	7	...........	-327.63
	710	14.22	-4.18852E-001	-8.24514E-011	0.00000E+000	-4.20000E-001	7.01743E-004	7	...........	-327.63
	712	14.26	-4.22834E-001	-1.53287E-010	0.00000E+000	-4.24000E-001	6.90076E-004	7	...........	-327.63
	714	14.3	-4.26816E-001	-2.90793E-010	0.00000E+000	-4.28000E-001	6.85076E-004	7	...........	-327.63
	716	14.34	-4.30813E-001	-5.28301E-010	0.00000E+000	-4.32000E-001	6.84243E-004	7	...........	-327.63
	718	14.38	-4.34801E-001	-5.07467E-010	0.00000E+000	-4.36000E-001	6.83410E-004	7	...........	-327.63
	720	14.42	-4.38763E-001	-4.94967E-010	0.00000E+000	-4.40000E-001	6.97576E-004	7	...........	-327.63
	722	14.46	-4.42756E-001	-5.03300E-010	0.00000E+000	-4.44000E-001	6.90076E-004	7	...........	-327.63
	724	14.5	-4.46746E-001	-7.44976E-010	0.00000E+000	-4.48000E-001	6.86743E-004	7	...........	-327.63
	726	14.54	-4.50725E-001	-7.61643E-010	0.00000E+000	-4.52000E-001	6.85910E-004	7	...........	-327.63
	728	14.58	-4.54700E-001	-6.69973E-010	0.00000E+000	-4.56000E-001	6.74243E-004	7	...........	-327.63
	730	14.62	-4.58681E-001	-7.78311E-010	0.00000E+000	-4.60000E-001	6.89243E-004	7	...........	-327.63
	732	14.66	-4.62660E-001	-9.11649E-010	0.00000E+000	-4.64000E-001	6.87576E-004	7	...........	-327.63
	734	14.7	-4.66643E-001	-9.40817E-010	0.00000E+000	-4.68000E-001	6.96743E-004	7	...........	-327.63
	736	14.74	-4.70618E-001	-1.11166E-009	0.00000E+000	-4.72000E-001	7.03410E-004	7	...........	-327.63
	738	14.78	-4.74601E-001	-1.13666E-009	0.00000E+000	-4.76000E-001	6.90910E-004	7	...........	-327.63
	740	14.82	-4.78592E-001	-1.19916E-009	0.00000E+000	-4.80000E-001	6.94243E-004	7	...........	-327.63
	742	14.86	-4.82580E-001	-1.38250E-009	0.00000E+000	-4.84000E-001	6.91743E-004	7	...........	-327.63
	744	14.9	-4.86568E-001	-1.29500E-009	0.00000E+000	-4.88000E-001	6.89243E-004	7	...........	-327.63
	746	14.94	-4.90545E-001	-1.26166E-009	0.00000E+000	-4.92000E-001	6.85910E-004	7	...........	-327.63
	748	14.98	-4.94535E-001	-1.34917E-009	0.00000E+000	-4.96000E-001	6.90910E-004	7	...........	-327.63
	750	15.02	-4.98522E-001	-1.46584E-009	0.00000E+000	-5.00000E-001	6.99243E-004	7	...........	-327.63
CURVE2	TABLE
	Pt	T	Vf	Im	Vu	Sig	Ach	IERange	Over	Temp
	#	s	V vs. Ref.	A	V	V	V	#	bits	deg C
	751	15.04	-4.96517E-001	-1.48667E-009	0.00000E+000	-4.98000E-001	6.41743E-004	7	...........	-327.63
	754	15.1	-4.90508E-001	-1.73668E-009	0.00000E+000	-4.92000E-001	7.01743E-004	7	...........	-327.63
	757	15.16	-4.84506E-001	-1.65751E-009	0.00000E+000	-4.86000E-001	6.47576E-004	7	...........	-327.63
	760	15.22	-4.78498E-001	-1.64918E-009	0.00000E+000	-4.80000E-001	6.89243E-004	7	...........	-327.63
	763	15.28	-4.72489E-001	-1.80335E-009	0.00000E+000	-4.74000E-001	6.49243E-004	7	...........	-327.63
	766	15.34	-4.66475E-001	-1.88669E-009	0.00000E+000	-4.68000E-001	6.95076E-004	7	...........	-327.63
	769	15.4	-4.60487E-001	-1.94085E-009	0.00000E+000	-4.62000E-001	6.44243E-004	7	...........	-327.63
[...]
	2803	56.08	-3.91493E-001	9.50541E-009	0.00000E+000	-3.94000E-001	4.47576E-004	7	...........	-327.63
	2804	56.1	-3.89496E-001	9.50124E-009	0.00000E+000	-3.92000E-001	4.65076E-004	7	...........	-327.63
	2805	56.12	-3.87492E-001	9.40540E-009	0.00000E+000	-3.90000E-001	4.45910E-004	7	...........	-327.63
	2806	56.14	-3.85490E-001	9.43040E-009	0.00000E+000	-3.88000E-001	4.49243E-004	7	...........	-327.63
	2807	56.16	-3.83524E-001	9.38040E-009	0.00000E+000	-3.86000E-001	4.49243E-004	7	...........	-327.63
	2808	56.18	-3.81512E-001	9.63874E-009	0.00000E+000	-3.84000E-001	4.56743E-004	7	...........	-327.63
	2809	56.2	-3.79509E-001	9.47624E-009	0.00000E+000	-3.82000E-001	4.65910E-004	7	...........	-327.63
	2810	56.22	-3.77508E-001	9.33873E-009	0.00000E+000	-3.80000E-001	4.56743E-004	7	...........	-327.63
	2811	56.24	-3.75522E-001	9.51791E-009	0.00000E+000	-3.78000E-001	4.20076E-004	7	...........	-327.63
	2812	56.26	-3.73516E-001	9.38874E-009	0.00000E+000	-3.76000E-001	4.46743E-004	7	...........	-327.63
	2813	56.28	-3.71527E-001	9.41790E-009	0.00000E+000	-3.74000E-001	4.54243E-004	7	...........	-327.63
	2814	56.3	-3.69528E-001	9.39707E-009	0.00000E+000	-3.72000E-001	4.40076E-004	7	...........	-327.63
	2815	56.32	-3.67533E-001	9.58041E-009	0.00000E+000	-3.70000E-001	4.64243E-004	7	...........	-327.63
	2816	56.34	-3.65535E-001	9.36373E-009	0.00000E+000	-3.68000E-001	4.70910E-004	7	...........	-327.63
	2817	56.36	-3.63547E-001	9.40957E-009	0.00000E+000	-3.66000E-001	4.25910E-004	7	...........	-327.63
	2818	56.38	-3.61542E-001	9.38040E-009	0.00000E+000	-3.64000E-001	4.48410E-004	7	...........	-327.63
	2819	56.4	-3.59550E-001	9.37623E-009	0.00000E+000	-3.62000E-001	4.75910E-004	7	...........	-327.63
	2820	56.42	-3.57573E-001	9.50541E-009	0.00000E+000	-3.60000E-001	4.55076E-004	7	...........	-327.63
	2821	56.44	-3.55566E-001	9.44707E-009	0.00000E+000	-3.58000E-001	4.30910E-004	7	...........	-327.63
	2822	56.46	-3.53582E-001	9.42624E-009	0.00000E+000	-3.56000E-001	4.50910E-004	7	...........	-327.63
	2823	56.48	-3.51577E-001	9.49291E-009	0.00000E+000	-3.54000E-001	4.54243E-004	7	...........	-327.63
	2824	56.5	-3.49582E-001	9.49707E-009	0.00000E+000	-3.52000E-001	4.67576E-004	7	...........	-327.63
	2825	56.52	-3.47579E-001	9.50541E-009	0.00000E+000	-3.50000E-001	4.44243E-004	7	...........	-327.63
	2826	56.54	-3.45588E-001	9.55957E-009	0.00000E+000	-3.48000E-001	4.46743E-004	7	...........	-327.63
	2827	56.56	-3.43595E-001	9.54707E-009	0.00000E+000	-3.46000E-001	4.50076E-004	7	...........	-327.63
	2828	56.58	-3.41588E-001	9.56791E-009	0.00000E+000	-3.44000E-001	4.45910E-004	7	...........	-327.63
	2829	56.6	-3.39597E-001	9.67625E-009	0.00000E+000	-3.42000E-001	4.25076E-004	7	...........	-327.63
	2830	56.62	-3.37589E-001	9.53041E-009	0.00000E+000	-3.40000E-001	4.65076E-004	7	...........	-327.63
	2831	56.64	-3.35612E-001	9.51374E-009	0.00000E+000	-3.38000E-001	4.44243E-004	7	...........	-327.63
	2832	56.66	-3.33607E-001	9.56791E-009	0.00000E+000	-3.36000E-001	4.55910E-004	7	...........	-327.63
	2833	56.68	-3.31621E-001	9.59291E-009	0.00000E+000	-3.34000E-001	4.45910E-004	7	...........	-327.63
	2834	56.7	-3.29622E-001	9.55541E-009	0.00000E+000	-3.32000E-001	4.48410E-004	7	...........	-327.63
	2835	56.72	-3.27624E-001	9.48457E-009	0.00000E+000	-3.30000E-001	4.22576E-004	7	...........	-327.63
	2836	56.74	-3.25624E-001	9.55957E-009	0.00000E+000	-3.28000E-001	4.43410E-004	7	...........	-327.63
	2837	56.76	-3.23626E-001	9.52207E-009	0.00000E+000	-3.26000E-001	4.55076E-004	7	...........	-327.63
	2838	56.78	-3.21630E-001	9.46374E-009	0.00000E+000	-3.24000E-001	4.53410E-004	7	...........	-327.63
	2839	56.8	-3.19632E-001	9.57208E-009	0.00000E+000	-3.22000E-001	4.47576E-004	7	...........	-327.63
	2840	56.82	-3.17636E-001	9.54291E-009	0.00000E+000	-3.20000E-001	4.49243E-004	7	...........	-327.63
	2841	56.84	-3.15651E-001	9.60541E-009	0.00000E+000	-3.18000E-001	4.38410E-004	7	...........	-327.63
	2842	56.86	-3.13648E-001	9.65125E-009	0.00000E+000	-3.16000E-001	4.65910E-004	7	...........	-327.63
	2843	56.88	-3.11655E-001	9.78875E-009	0.00000E+000	-3.14000E-001	4.38410E-004	7	...........	-327.63
	2844	56.9	-3.09655E-001	9.74708E-009	0.00000E+000	-3.12000E-001	4.71743E-004	7	...........	-327.63
	2845	56.92	-3.07661E-001	9.73041E-009	0.00000E+000	-3.10000E-001	4.35076E-004	7	...........	-327.63
	2846	56.94	-3.05682E-001	9.56791E-009	0.00000E+000	-3.08000E-001	4.59243E-004	7	...........	-327.63
	2847	56.96	-3.03678E-001	9.78042E-009	0.00000E+000	-3.06000E-001	4.51743E-004	7	...........	-327.63
	2848	56.98	-3.01687E-001	9.65125E-009	0.00000E+000	-3.04000E-001	4.63410E-004	7	...........	-327.63
	2849	57	-2.99689E-001	9.72625E-009	0.00000E+000	-3.02000E-001	4.55910E-004	7	...........	-327.63
	2850	57.02	-2.97692E-001	9.73458E-009	0.00000E+000	-3.00000E-001	4.32576E-004	7	...........	-327.63
	2851	57.04	-2.95689E-001	9.77625E-009	0.00000E+000	-2.98000E-001	4.41743E-004	7	...........	-327.63
	2852	57.06	-2.93689E-001	9.56791E-009	0.00000E+000	-2.96000E-001	4.40910E-004	7	...........	-327.63
	2853	57.08	-2.91710E-001	9.79292E-009	0.00000E+000	-2.94000E-001	4.68410E-004	7	...........	-327.63
	2854	57.1	-2.89703E-001	9.75542E-009	0.00000E+000	-2.92000E-001	4.51743E-004	7	...........	-327.63
	2855	57.12	-2.87712E-001	9.85959E-009	0.00000E+000	-2.90000E-001	4.55076E-004	7	...........	-327.63
	2856	57.14	-2.85710E-001	9.73875E-009	0.00000E+000	-2.88000E-001	4.61743E-004	7	...........	-327.63
	2857	57.16	-2.83713E-001	9.85959E-009	0.00000E+000	-2.86000E-001	4.37576E-004	7	...........	-327.63
	2858	57.18	-2.81717E-001	9.72625E-009	0.00000E+000	-2.84000E-001	4.38410E-004	7	...........	-327.63
	2859	57.2	-2.79726E-001	9.70125E-009	0.00000E+000	-2.82000E-001	4.65910E-004	7	...........	-327.63
	2860	57.22	-2.77733E-001	9.76792E-009	0.00000E+000	-2.80000E-001	4.70076E-004	7	...........	-327.63
	2861	57.24	-2.75731E-001	9.72208E-009	0.00000E+000	-2.78000E-001	4.43410E-004	7	...........	-327.63
	2862	57.26	-2.73739E-001	9.74708E-009	0.00000E+000	-2.76000E-001	4.49243E-004	7	...........	-327.63
	2863	57.28	-2.71732E-001	9.84292E-009	0.00000E+000	-2.74000E-001	4.52576E-004	7	...........	-327.63
	2864	57.3	-2.69754E-001	9.73458E-009	0.00000E+000	-2.72000E-001	4.65910E-004	7	...........	-327.63
	2865	57.32	-2.67746E-001	9.90125E-009	0.00000E+000	-2.70000E-001	4.43410E-004	7	...........	-327.63
	2866	57.34	-2.65758E-001	9.83875E-009	0.00000E+000	-2.68000E-001	4.41743E-004	7	...........	-327.63
	2867	57.36	-2.63748E-001	9.78458E-009	0.00000E+000	-2.66000E-001	4.36743E-004	7	...........	-327.63
	2868	57.38	-2.61762E-001	9.98042E-009	0.00000E+000	-2.64000E-001	4.45910E-004	7	...........	-327.63
	2869	57.4	-2.59783E-001	9.84292E-009	0.00000E+000	-2.62000E-001	4.58410E-004	7	...........	-327.63
	2870	57.42	-2.57770E-001	9.70541E-009	0.00000E+000	-2.60000E-001	4.59243E-004	7	...........	-327.63
	2871	57.44	-2.55789E-001	9.79708E-009	0.00000E+000	-2.58000E-001	4.45076E-004	7	...........	-327.63
	2872	57.46	-2.53786E-001	9.94709E-009	0.00000E+000	-2.56000E-001	4.58410E-004	7	...........	-327.63
	2873	57.48	-2.51787E-001	1.00054E-008	0.00000E+000	-2.54000E-001	4.54243E-004	7	...........	-327.63
	2874	57.5	-2.49798E-001	1.00346E-008	0.00000E+000	-2.52000E-001	4.44243E-004	7	...........	-327.63
	2875	57.52	-2.47791E-001	9.86375E-009	0.00000E+000	-2.50000E-001	4.42576E-004	7	...........	-327.63
	2876	57.54	-2.45807E-001	1.01846E-008	0.00000E+000	-2.48000E-001	4.44243E-004	7	...........	-327.63
	2877	57.56	-2.43791E-001	1.01346E-008	0.00000E+000	-2.46000E-001	4.50076E-004	7	...........	-327.63
	2878	57.58	-2.41810E-001	1.01263E-008	0.00000E+000	-2.44000E-001	4.32576E-004	7	...........	-327.63
	2879	57.6	-2.39807E-001	1.00679E-008	0.00000E+000	-2.42000E-001	4.45076E-004	7	...........	-327.63
	2880	57.62	-2.37811E-001	1.01388E-008	0.00000E+000	-2.40000E-001	4.51743E-004	7	...........	-327.63
	2881	57.64	-2.35813E-001	1.00804E-008	0.00000E+000	-2.38000E-001	4.51743E-004	7	...........	-327.63
	2882	57.66	-2.33819E-001	1.00054E-008	0.00000E+000	-2.36000E-001	4.45910E-004	7	...........	-327.63
	2883	57.68	-2.31824E-001	1.00971E-008	0.00000E+000	-2.34000E-001	4.41743E-004	7	...........	-327.63
	2884	57.7	-2.29846E-001	1.01888E-008	0.00000E+000	-2.32000E-001	4.50076E-004	7	...........	-327.63
	2885	57.72	-2.27841E-001	1.01471E-008	0.00000E+000	-2.30000E-001	4.55076E-004	7	...........	-327.63
	2886	57.74	-2.25843E-001	1.02138E-008	0.00000E+000	-2.28000E-001	4.58410E-004	7	...........	-327.63
	2887	57.76	-2.23851E-001	1.00929E-008	0.00000E+000	-2.26000E-001	4.50910E-004	7	...........	-327.63
	2888	57.78	-2.21846E-001	1.00679E-008	0.00000E+000	-2.24000E-001	4.63410E-004	7	...........	-327.63
	2889	57.8	-2.19844E-001	1.00304E-008	0.00000E+000	-2.22000E-001	4.61743E-004	7	...........	-327.63
	2890	57.82	-2.17853E-001	1.00638E-008	0.00000E+000	-2.20000E-001	4.38410E-004	7	...........	-327.63
	2891	57.84	-2.15875E-001	1.01763E-008	0.00000E+000	-2.18000E-001	4.65910E-004	7	...........	-327.63
	2892	57.86	-2.13854E-001	1.02471E-008	0.00000E+000	-2.16000E-001	4.59243E-004	7	...........	-327.63
	2893	57.88	-2.11854E-001	1.01721E-008	0.00000E+000	-2.14000E-001	4.39243E-004	7	...........	-327.63
	2894	57.9	-2.09871E-001	1.02638E-008	0.00000E+000	-2.12000E-001	4.70910E-004	7	...........	-327.63
	2895	57.92	-2.07864E-001	1.00679E-008	0.00000E+000	-2.10000E-001	4.47576E-004	7	...........	-327.63
	2896	57.94	-2.05872E-001	1.01679E-008	0.00000E+000	-2.08000E-001	4.60076E-004	7	...........	-327.63
	2897	57.96	-2.03907E-001	1.01263E-008	0.00000E+000	-2.06000E-001	4.58410E-004	7	...........	-327.63
	2898	57.98	-2.01890E-001	1.03096E-008	0.00000E+000	-2.04000E-001	4.61743E-004	7	...........	-327.63
	2899	58	-1.99894E-001	1.01263E-008	0.00000E+000	-2.02000E-001	4.53410E-004	7	...........	-327.63
	2900	58.02	-1.97899E-001	1.01138E-008	0.00000E+000	-2.00000E-001	4.61743E-004	7	...........	-327.63
	2901	58.04	-1.95899E-001	1.04221E-008	0.00000E+000	-1.98000E-001	4.49243E-004	7	...........	-327.63
	2902	58.06	-1.93904E-001	1.01679E-008	0.00000E+000	-1.96000E-001	4.57576E-004	7	...........	-327.63
	2903	58.08	-1.91910E-001	1.02388E-008	0.00000E+000	-1.94000E-001	4.47576E-004	7	...........	-327.63
	2904	58.1	-1.89922E-001	1.03554E-008	0.00000E+000	-1.92000E-001	4.58410E-004	7	...........	-327.63
	2905	58.12	-1.87913E-001	1.01846E-008	0.00000E+000	-1.90000E-001	4.35076E-004	7	...........	-327.63
	2906	58.14	-1.85924E-001	1.03096E-008	0.00000E+000	-1.88000E-001	4.46743E-004	7	...........	-327.63
	2907	58.16	-1.83924E-001	1.03429E-008	0.00000E+000	-1.86000E-001	4.44243E-004	7	...........	-327.63
	2908	58.18	-1.81936E-001	1.03388E-008	0.00000E+000	-1.84000E-001	4.58410E-004	7	...........	-327.63
	2909	58.2	-1.79917E-001	1.01846E-008	0.00000E+000	-1.82000E-001	4.36743E-004	7	...........	-327.63
	2910	58.22	-1.77947E-001	1.02013E-008	0.00000E+000	-1.80000E-001	4.49243E-004	7	...........	-327.63
	2911	58.24	-1.75934E-001	1.01263E-008	0.00000E+000	-1.78000E-001	4.69243E-004	7	...........	-327.63
	2912	58.26	-1.73948E-001	1.01929E-008	0.00000E+000	-1.76000E-001	4.48410E-004	7	...........	-327.63
	2913	58.28	-1.71946E-001	1.01179E-008	0.00000E+000	-1.74000E-001	4.55076E-004	7	...........	-327.63
	2914	58.3	-1.69947E-001	1.02471E-008	0.00000E+000	-1.72000E-001	4.60076E-004	7	...........	-327.63
	2915	58.32	-1.67955E-001	1.00221E-008	0.00000E+000	-1.70000E-001	4.50076E-004	7	...........	-327.63
	2916	58.34	-1.65947E-001	1.01388E-008	0.00000E+000	-1.68000E-001	4.47576E-004	7	...........	-327.63
	2917	58.36	-1.63963E-001	1.03679E-008	0.00000E+000	-1.66000E-001	4.65910E-004	7	...........	-327.63
	2918	58.38	-1.61949E-001	1.02638E-008	0.00000E+000	-1.64000E-001	4.57576E-004	7	...........	-327.63
	2919	58.4	-1.59958E-001	1.02929E-008	0.00000E+000	-1.62000E-001	4.27576E-004	7	...........	-327.63
	2920	58.42	-1.57967E-001	1.01763E-008	0.00000E+000	-1.60000E-001	4.38410E-004	7	...........	-327.63
	2921	58.44	-1.55965E-001	1.02554E-008	0.00000E+000	-1.58000E-001	4.58410E-004	7	...........	-327.63
	2922	58.46	-1.53987E-001	1.04971E-008	0.00000E+000	-1.56000E-001	4.35910E-004	7	...........	-327.63
	2923	58.48	-1.52004E-001	1.02804E-008	0.00000E+000	-1.54000E-001	4.54243E-004	7	...........	-327.63
	2924	58.5	-1.49989E-001	1.02846E-008	0.00000E+000	-1.52000E-001	4.35910E-004	7	...........	-327.63
	2925	58.52	-1.48002E-001	1.03638E-008	0.00000E+000	-1.50000E-001	4.26743E-004	7	...........	-327.63
	2926	58.54	-1.45991E-001	1.03888E-008	0.00000E+000	-1.48000E-001	4.50910E-004	7	...........	-327.63
	2927	58.56	-1.43994E-001	1.02138E-008	0.00000E+000	-1.46000E-001	4.36743E-004	7	...........	-327.63
	2928	58.58	-1.42010E-001	1.03971E-008	0.00000E+000	-1.44000E-001	4.42576E-004	7	...........	-327.63
	2929	58.6	-1.40018E-001	1.03804E-008	0.00000E+000	-1.42000E-001	4.43410E-004	7	...........	-327.63
	2930	58.62	-1.38016E-001	1.03221E-008	0.00000E+000	-1.40000E-001	4.60076E-004	7	...........	-327.63
	2931	58.64	-1.36007E-001	1.04388E-008	0.00000E+000	-1.38000E-001	4.54243E-004	7	...........	-327.63
	2932	58.66	-1.34012E-001	1.05513E-008	0.00000E+000	-1.36000E-001	4.70076E-004	7	...........	-327.63
	2933	58.68	-1.32021E-001	1.04679E-008	0.00000E+000	-1.34000E-001	4.37576E-004	7	...........	-327.63
	2934	58.7	-1.30040E-001	1.06263E-008	0.00000E+000	-1.32000E-001	4.45910E-004	7	...........	-327.63
	2935	58.72	-1.28028E-001	1.06221E-008	0.00000E+000	-1.30000E-001	4.44243E-004	7	...........	-327.63
	2936	58.74	-1.26045E-001	1.05554E-008	0.00000E+000	-1.28000E-001	4.35910E-004	7	...........	-327.63
	2937	58.76	-1.24040E-001	1.04679E-008	0.00000E+000	-1.26000E-001	4.55910E-004	7	...........	-327.63
	2938	58.78	-1.22046E-001	1.06179E-008	0.00000E+000	-1.24000E-001	4.38410E-004	7	...........	-327.63
	2939	58.8	-1.20050E-001	1.05304E-008	0.00000E+000	-1.22000E-001	4.40076E-004	7	...........	-327.63
	2940	58.82	-1.18052E-001	1.04763E-008	0.00000E+000	-1.20000E-001	4.45076E-004	7	...........	-327.63
	2941	58.84	-1.16061E-001	1.05596E-008	0.00000E+000	-1.18000E-001	4.40076E-004	7	...........	-327.63
	2942	58.86	-1.14064E-001	1.05846E-008	0.00000E+000	-1.16000E-001	4.48410E-004	7	...........	-327.63
	2943	58.88	-1.12057E-001	1.04388E-008	0.00000E+000	-1.14000E-001	4.50910E-004	7	...........	-327.63
	2944	58.9	-1.10059E-001	1.05054E-008	0.00000E+000	-1.12000E-001	4.59243E-004	7	...........	-327.63
	2945	58.92	-1.08070E-001	1.05429E-008	0.00000E+000	-1.10000E-001	4.55076E-004	7	...........	-327.63
	2946	58.94	-1.06073E-001	1.05054E-008	0.00000E+000	-1.08000E-001	4.47576E-004	7	...........	-327.63
	2947	58.96	-1.04070E-001	1.06846E-008	0.00000E+000	-1.06000E-001	4.55910E-004	7	...........	-327.63
	2948	58.98	-1.02099E-001	1.06471E-008	0.00000E+000	-1.04000E-001	4.44243E-004	7	...........	-327.63
	2949	59	-1.00098E-001	1.06138E-008	0.00000E+000	-1.02000E-001	4.40076E-004	7	...........	-327.63
	2950	59.02	-9.80912E-002	1.05804E-008	0.00000E+000	-1.00000E-001	4.41743E-004	7	...........	-327.63
	2951	59.04	-9.60978E-002	1.05638E-008	0.00000E+000	-9.80000E-002	4.52576E-004	7	...........	-327.63
	2952	59.06	-9.41137E-002	1.04971E-008	0.00000E+000	-9.60000E-002	4.46743E-004	7	...........	-327.63
	2953	59.08	-9.21137E-002	1.05888E-008	0.00000E+000	-9.40000E-002	4.62576E-004	7	...........	-327.63
	2954	59.1	-9.01087E-002	1.05138E-008	0.00000E+000	-9.20000E-002	4.51743E-004	7	...........	-327.63
	2955	59.12	-8.81266E-002	1.05638E-008	0.00000E+000	-9.00000E-002	4.67576E-004	7	...........	-327.63
	2956	59.14	-8.61270E-002	1.06221E-008	0.00000E+000	-8.80000E-002	4.55076E-004	7	...........	-327.63
	2957	59.16	-8.41257E-002	1.06054E-008	0.00000E+000	-8.60000E-002	4.57576E-004	7	...........	-327.63
	2958	59.18	-8.21307E-002	1.06846E-008	0.00000E+000	-8.40000E-002	4.46743E-004	7	...........	-327.63
	2959	59.2	-8.01253E-002	1.06471E-008	0.00000E+000	-8.20000E-002	4.54243E-004	7	...........	-327.63
	2960	59.22	-7.81216E-002	1.06429E-008	0.00000E+000	-8.00000E-002	4.59243E-004	7	...........	-327.63
	2961	59.24	-7.61474E-002	1.06554E-008	0.00000E+000	-7.80000E-002	4.77576E-004	7	...........	-327.63
	2962	59.26	-7.41449E-002	1.08096E-008	0.00000E+000	-7.60000E-002	4.36743E-004	7	...........	-327.63
	2963	59.28	-7.21491E-002	1.06679E-008	0.00000E+000	-7.40000E-002	4.54243E-004	7	...........	-327.63
	2964	59.3	-7.01516E-002	1.09430E-008	0.00000E+000	-7.20000E-002	4.38410E-004	7	...........	-327.63
	2965	59.32	-6.81528E-002	1.07263E-008	0.00000E+000	-7.00000E-002	4.55076E-004	7	...........	-327.63
	2966	59.34	-6.61607E-002	1.07346E-008	0.00000E+000	-6.80000E-002	4.45076E-004	7	...........	-327.63
	2967	59.36	-6.41616E-002	1.07846E-008	0.00000E+000	-6.60000E-002	4.51743E-004	7	...........	-327.63
	2968	59.38	-6.21703E-002	1.06429E-008	0.00000E+000	-6.40000E-002	4.66743E-004	7	...........	-327.63
	2969	59.4	-6.01795E-002	1.07805E-008	0.00000E+000	-6.20000E-002	4.40910E-004	7	...........	-327.63
	2970	59.42	-5.81799E-002	1.08638E-008	0.00000E+000	-6.00000E-002	4.61743E-004	7	...........	-327.63
	2971	59.44	-5.61720E-002	1.08680E-008	0.00000E+000	-5.80000E-002	4.56743E-004	7	...........	-327.63
	2972	59.46	-5.41791E-002	1.07180E-008	0.00000E+000	-5.60000E-002	4.52576E-004	7	...........	-327.63
	2973	59.48	-5.21745E-002	1.08680E-008	0.00000E+000	-5.40000E-002	4.60910E-004	7	...........	-327.63
	2974	59.5	-5.02262E-002	1.08096E-008	0.00000E+000	-5.20000E-002	4.35910E-004	7	...........	-327.63
	2975	59.52	-4.82007E-002	1.08805E-008	0.00000E+000	-5.00000E-002	4.36743E-004	7	...........	-327.63
	2976	59.54	-4.61966E-002	1.09221E-008	0.00000E+000	-4.80000E-002	4.46743E-004	7	...........	-327.63
	2977	59.56	-4.42249E-002	1.09971E-008	0.00000E+000	-4.60000E-002	4.64243E-004	7	...........	-327.63
	2978	59.58	-4.22124E-002	1.08055E-008	0.00000E+000	-4.40000E-002	4.56743E-004	7	...........	-327.63
	2979	59.6	-4.02107E-002	1.09888E-008	0.00000E+000	-4.20000E-002	4.48410E-004	7	...........	-327.63
	2980	59.62	-3.82228E-002	1.08346E-008	0.00000E+000	-4.00000E-002	4.52576E-004	7	...........	-327.63
	2981	59.64	-3.62420E-002	1.09388E-008	0.00000E+000	-3.80000E-002	4.60910E-004	7	...........	-327.63
	2982	59.66	-3.42270E-002	1.09013E-008	0.00000E+000	-3.60000E-002	4.63410E-004	7	...........	-327.63
	2983	59.68	-3.22349E-002	1.10680E-008	0.00000E+000	-3.40000E-002	4.53410E-004	7	...........	-327.63
	2984	59.7	-3.02441E-002	1.09305E-008	0.00000E+000	-3.20000E-002	4.45910E-004	7	...........	-327.63
	2985	59.72	-2.82412E-002	1.10013E-008	0.00000E+000	-3.00000E-002	4.55076E-004	7	...........	-327.63
	2986	59.74	-2.62645E-002	1.10138E-008	0.00000E+000	-2.80000E-002	4.45910E-004	7	...........	-327.63
	2987	59.76	-2.42749E-002	1.10013E-008	0.00000E+000	-2.60000E-002	4.45910E-004	7	...........	-327.63
	2988	59.78	-2.22720E-002	1.10763E-008	0.00000E+000	-2.40000E-002	4.55910E-004	7	...........	-327.63
	2989	59.8	-2.02712E-002	1.11388E-008	0.00000E+000	-2.20000E-002	4.37576E-004	7	...........	-327.63
	2990	59.82	-1.82782E-002	1.11555E-008	0.00000E+000	-2.00000E-002	4.47576E-004	7	...........	-327.63
	2991	59.84	-1.62807E-002	1.11096E-008	0.00000E+000	-1.80000E-002	4.68410E-004	7	...........	-327.63
	2992	59.86	-1.42924E-002	1.10263E-008	0.00000E+000	-1.60000E-002	4.50910E-004	7	...........	-327.63
	2993	59.88	-1.23037E-002	1.09305E-008	0.00000E+000	-1.40000E-002	4.64243E-004	7	...........	-327.63
	2994	59.9	-1.02991E-002	1.10721E-008	0.00000E+000	-1.20000E-002	4.43410E-004	7	...........	-327.63
	2995	59.92	-8.29991E-003	1.11305E-008	0.00000E+000	-1.00000E-002	4.59243E-004	7	...........	-327.63
	2996	59.94	-6.29908E-003	1.12305E-008	0.00000E+000	-8.00000E-003	4.57576E-004	7	...........	-327.63
	2997	59.96	-4.30991E-003	1.13930E-008	0.00000E+000	-6.00000E-003	4.59243E-004	7	...........	-327.63
	2998	59.98	-2.31199E-003	1.12971E-008	0.00000E+000	-4.00000E-003	4.58410E-004	7	...........	-327.63
	2999	60	-3.15743E-004	1.12555E-008	0.00000E+000	-2.00000E-003	4.55910E-004	7	...........	-327.63
	3000	60.02	1.67592E-003	1.12763E-008	0.00000E+000	0.00000E+000	4.57576E-004	7	...........	-327.63