File: Gamry/CV_smallGrid_newBuffer_1.DTA
EXPLAIN
TAG	CV
TITLE	LABEL	Cyclic Voltammetry	Test &Identifier
DATE	LABEL	5-12-2022	Date
TIME	LABEL	13:03:32	Time
NOTES	NOTES	1	&Notes...

PSTAT	PSTAT	REF3000-20110	Potentiostat
VINIT	POTEN	0.00000E+000	F	Initial &E (V)
VLIMIT1	POTEN	5.00000E-001	F	Scan Limit &1 (V)
VLIMIT2	POTEN	-5.00000E-001	F	Scan Limit &2 (V)
VFINAL	POTEN	0.00000E+000	F	Final &E (V)
SCANRATE	QUANT	9.99998E+001	&Scan Rate (mV/s)
STEPSIZE	QUANT	2.00000E+000	St&ep Size (mV)
CYCLES	IQUANT	3	C&ycles (#)
IMODE	SELECTOR	0	I/E Range &Mode
IRANGE	QUANT	3.00000E-001	&Max Current (mA)
AREA	QUANT	1.00000E+000	Electrode &Area (cm^2)
ELECTRODETYPE	SELECTOR	0	Electrode Type
STRIPPING	TOGGLE	F	Used for Stripping
CONDIT	TWOPARAM	F	1.50000E+001	0.00000E+000	Conditionin&g	Time(s)	E(V)
DELAY	TWOPARAM	F	3.00000E+001	0.00000E+000	Init. De&lay	Time(s)	Stab.(mV/s)
EQDELAY	QUANT	0.00000E+000	Equil. &Time (s)
IRCOMP	SELECTOR	0	IRCom&p
PFCOR	QUANT	5.00000E+001	PF Corr. (ohm)
SAMPLINGMODE	SELECTOR	1	Sampling &Mode
EOC	QUANT	0	Open Circuit (V)
PSTATMODEL	IQUANT	5	Pstat Model
PSTATSECTION	LABEL	REF3000-20110	Pstat Section
PSTATSERIALNO	LABEL	20110	Pstat Serial Number
CTRLMODE	IQUANT	1	Control Mode
ELECTROMETER	IQUANT	0	RE=0 or CS=1
IESTAB	IQUANT	2	I/E Stability
CASPEED	IQUANT	4	Control Amp Speed
CONVENTION	IQUANT	1	Current Convention
ICHRANGE	IQUANT	2	Ich Range
ICHRANGEMODE	TOGGLE	F	Ich Auto Range
ICHOFFSETENABLE	TOGGLE	F	Ich Offset Enable
ICHOFFSET	QUANT	0	Ich Offset (V)
ICHFILTER	IQUANT	2	Ich Filter
VCHRANGE	IQUANT	2	Vch Range
VCHRANGEMODE	TOGGLE	F	Vch Auto Range
VCHOFFSETENABLE	TOGGLE	F	Vch Offset Enable
VCHOFFSET	QUANT	0	Vch Offset (V)
VCHFILTER	IQUANT	2	Vch Filter
ACHRANGE	IQUANT	2	Ach Range
ACHOFFSETENABLE	TOGGLE	F	Ach Offset Enable
ACHOFFSET	QUANT	0	Ach Offset (V)
ACHFILTER	IQUANT	1	Ach Filter
IERANGELOWERLIMIT	IQUANT	2	I/E Range Lower Limit
IERANGEMODE	TOGGLE	T	I/E AutoRange
IERANGE	IQUANT	9	I/E Range
POSFEEDENABLE	TOGGLE	F	Positive Feedback IR Comp
POSFEEDRESISTANCE	QUANT	0	Positive Feedback Resistance (ohm)
ACHSELECT	IQUANT	4	Ach Select
SENSECABLEID	IQUANT	14	Sense Cable ID
PWRCABLEID	IQUANT	7	Power Cable ID
DCCALDATE	LABEL	8/9/2022	DC Calibration Date
ACCALDATE	LABEL	8/9/2022	AC Calibration Date
THERMOSELECT	IQUANT	1	Thermo Select
FRAMEWORKVERSION	LABEL	7.9.0	Framework Version
INSTRUMENTVERSION	LABEL	4.60	Instrument Version
COMPLIANCEVOLTAGE	IQUANT	0	Compliance Voltage
CURVE1	TABLE
	Pt	T	Vf	Im	Vu	Sig	Ach	IERange	Over	Temp
	#	s	V vs. Ref.	A	V	V	V	#	bits	deg C
	0	0.02	-2.36152E-003	-1.07420E-007	0.00000E+000	0.00000E+000	6.91743E-004	9	...........	-327.63
	2	0.06	1.59801E-003	1.91266E-008	0.00000E+000	4.00000E-003	6.85910E-004	7	...........	-327.63
	4	0.1	5.48009E-003	1.92808E-008	0.00000E+000	8.00000E-003	6.80910E-004	7	...........	-327.63
	6	0.14	7.14551E-003	1.98808E-008	0.00000E+000	1.20000E-002	6.86743E-004	7	...........	-327.63
	8	0.18	1.34393E-002	1.94224E-008	0.00000E+000	1.60000E-002	6.89243E-004	7	...........	-327.63
	10	0.22	1.74234E-002	1.94683E-008	0.00000E+000	2.00000E-002	6.84243E-004	7	...........	-327.63
	12	0.26	2.14176E-002	1.94558E-008	0.00000E+000	2.40000E-002	6.83410E-004	7	...........	-327.63
	14	0.3	2.40788E-002	1.97475E-008	0.00000E+000	2.80000E-002	6.84243E-004	7	...........	-327.63
	16	0.34	2.94647E-002	1.92641E-008	0.00000E+000	3.20000E-002	6.89243E-004	7	...........	-327.63
	18	0.38	3.35472E-002	1.94558E-008	0.00000E+000	3.60000E-002	6.83410E-004	7	...h.......	-327.63
	20	0.42	3.73493E-002	1.95391E-008	0.00000E+000	4.00000E-002	6.77576E-004	7	...........	-327.63
	22	0.46	3.98547E-002	1.99641E-008	0.00000E+000	4.40000E-002	6.88410E-004	7	...........	-327.63
	24	0.5	4.28963E-002	2.01766E-008	0.00000E+000	4.80000E-002	6.84243E-004	7	...........	-327.63
	26	0.54	4.66501E-002	2.02975E-008	0.00000E+000	5.20000E-002	6.88410E-004	7	...........	-327.63
	28	0.58	5.27913E-002	2.00641E-008	0.00000E+000	5.60000E-002	6.86743E-004	7	...........	-327.63
	30	0.62	5.64130E-002	2.01975E-008	0.00000E+000	6.00000E-002	6.80910E-004	7	...........	-327.63
	32	0.66	6.03855E-002	2.03600E-008	0.00000E+000	6.40000E-002	6.79243E-004	7	...........	-327.63
	34	0.7	6.47401E-002	2.00100E-008	0.00000E+000	6.80000E-002	6.85910E-004	7	...........	-327.63
	36	0.74	6.92722E-002	2.01141E-008	0.00000E+000	7.20000E-002	6.86743E-004	7	...........	-327.63
	38	0.78	7.19084E-002	2.03766E-008	0.00000E+000	7.60000E-002	7.01743E-004	7	...........	-327.63
	40	0.82	7.49805E-002	2.08558E-008	0.00000E+000	8.00000E-002	6.84243E-004	7	...........	-327.63
	42	0.86	8.12530E-002	2.00558E-008	0.00000E+000	8.40000E-002	6.83410E-004	7	...h.......	-327.63
	44	0.9	8.52005E-002	2.03475E-008	0.00000E+000	8.80000E-002	6.83410E-004	7	...........	-327.63
	46	0.94	8.66397E-002	2.08392E-008	0.00000E+000	9.20000E-002	6.85910E-004	7	...........	-327.63
	48	0.98	9.09209E-002	2.07433E-008	0.00000E+000	9.60000E-002	6.79243E-004	7	...........	-327.63
	50	1.02	9.53405E-002	2.06392E-008	0.00000E+000	1.00000E-001	6.85076E-004	7	...........	-327.63
	52	1.06	9.94572E-002	2.07558E-008	0.00000E+000	1.04000E-001	6.79243E-004	7	...........	-327.63
	54	1.1	1.03244E-001	2.04766E-008	0.00000E+000	1.08000E-001	6.82576E-004	7	...........	-327.63
	56	1.14	1.08374E-001	2.04766E-008	0.00000E+000	1.12000E-001	6.85910E-004	7	...........	-327.63
	58	1.18	1.12504E-001	2.04850E-008	0.00000E+000	1.16000E-001	6.80076E-004	7	...........	-327.63
	60	1.22	1.14262E-001	2.11350E-008	0.00000E+000	1.20000E-001	6.70076E-004	7	...........	-327.63
	62	1.26	1.18943E-001	2.08642E-008	0.00000E+000	1.24000E-001	6.90910E-004	7	...........	-327.63
	64	1.3	1.24361E-001	2.05558E-008	0.00000E+000	1.28000E-001	6.82576E-004	7	...........	-327.63
	66	1.34	1.28219E-001	2.07558E-008	0.00000E+000	1.32000E-001	6.97576E-004	7	...........	-327.63
	68	1.38	1.30128E-001	2.13725E-008	0.00000E+000	1.36000E-001	6.85910E-004	7	...........	-327.63
	70	1.42	1.35234E-001	2.11225E-008	0.00000E+000	1.40000E-001	6.93410E-004	7	...........	-327.63
	72	1.46	1.40941E-001	2.07350E-008	0.00000E+000	1.44000E-001	6.78410E-004	7	...........	-327.63
	74	1.5	1.43128E-001	2.11683E-008	0.00000E+000	1.48000E-001	6.82576E-004	7	...........	-327.63
	76	1.54	1.48966E-001	2.05725E-008	0.00000E+000	1.52000E-001	6.83410E-004	7	...........	-327.63
	78	1.58	1.52700E-001	2.05517E-008	0.00000E+000	1.56000E-001	6.82576E-004	7	...........	-327.63
	80	1.62	1.57419E-001	2.05392E-008	0.00000E+000	1.60000E-001	6.78410E-004	7	...........	-327.63
	82	1.66	1.60916E-001	2.05975E-008	0.00000E+000	1.64000E-001	6.84243E-004	7	...........	-327.63
	84	1.7	1.64913E-001	2.07683E-008	0.00000E+000	1.68000E-001	6.80910E-004	7	...........	-327.63
	86	1.74	1.68914E-001	2.07850E-008	0.00000E+000	1.72000E-001	6.95910E-004	7	...........	-327.63
	88	1.78	1.72890E-001	2.07058E-008	0.00000E+000	1.76000E-001	7.06743E-004	7	...........	-327.63
	90	1.82	1.76833E-001	2.10350E-008	0.00000E+000	1.80000E-001	6.84243E-004	7	...........	-327.63
	92	1.86	1.78770E-001	2.14058E-008	0.00000E+000	1.84000E-001	6.88410E-004	7	...........	-327.63
	94	1.9	1.84886E-001	2.09142E-008	0.00000E+000	1.88000E-001	6.88410E-004	7	...........	-327.63
	96	1.94	1.86786E-001	2.14559E-008	0.00000E+000	1.92000E-001	6.87576E-004	7	...........	-327.63
	98	1.98	1.92420E-001	2.07517E-008	0.00000E+000	1.96000E-001	6.87576E-004	7	...........	-327.63
	100	2.02	1.93648E-001	2.17517E-008	0.00000E+000	2.00000E-001	6.82576E-004	7	...........	-327.63
	102	2.06	1.97744E-001	2.15100E-008	0.00000E+000	2.04000E-001	6.83410E-004	7	...h.......	-327.63
	104	2.1	2.03293E-001	2.10975E-008	0.00000E+000	2.08000E-001	6.89243E-004	7	...........	-327.63
	106	2.14	2.05823E-001	2.10600E-008	0.00000E+000	2.12000E-001	6.85076E-004	7	...........	-327.63
	108	2.18	2.11619E-001	2.02350E-008	0.00000E+000	2.16000E-001	6.87576E-004	7	...h.......	-327.63
	110	2.22	2.16172E-001	2.01433E-008	0.00000E+000	2.20000E-001	6.87576E-004	7	...........	-327.63
	112	2.26	2.17753E-001	2.09350E-008	0.00000E+000	2.24000E-001	6.84243E-004	7	...........	-327.63
	114	2.3	2.22974E-001	2.05225E-008	0.00000E+000	2.28000E-001	6.88410E-004	7	...........	-327.63
	116	2.34	2.25784E-001	2.05975E-008	0.00000E+000	2.32000E-001	6.90910E-004	7	...........	-327.63
	118	2.38	2.33017E-001	2.00766E-008	0.00000E+000	2.36000E-001	6.80076E-004	7	..ch.......	-327.63
	120	2.42	2.37201E-001	1.98308E-008	0.00000E+000	2.40000E-001	6.83410E-004	7	..ch.......	-327.63
	122	2.46	2.40650E-001	1.99266E-008	0.00000E+000	2.44000E-001	6.74243E-004	7	...........	-327.63
	124	2.5	2.42065E-001	2.03183E-008	0.00000E+000	2.48000E-001	6.95076E-004	7	...........	-327.63
	126	2.54	2.50011E-001	1.95266E-008	0.00000E+000	2.52000E-001	6.80910E-004	7	..ch.......	-327.63
	128	2.58	2.50737E-001	2.03058E-008	0.00000E+000	2.56000E-001	6.90076E-004	7	...........	-327.63
	130	2.62	2.57669E-001	1.94474E-008	0.00000E+000	2.60000E-001	6.85076E-004	7	..ch.......	-327.63
	132	2.66	2.59758E-001	1.98183E-008	0.00000E+000	2.64000E-001	6.81743E-004	7	...........	-327.63
	134	2.7	2.65745E-001	1.92891E-008	0.00000E+000	2.68000E-001	6.88410E-004	7	...........	-327.63
	136	2.74	2.69573E-001	1.92516E-008	0.00000E+000	2.72000E-001	6.84243E-004	7	...........	-327.63
	138	2.78	2.72628E-001	1.94058E-008	0.00000E+000	2.76000E-001	6.85910E-004	7	...h.......	-327.63
	140	2.82	2.74298E-001	2.00058E-008	0.00000E+000	2.80000E-001	6.90910E-004	7	...........	-327.63
	142	2.86	2.80952E-001	1.93891E-008	0.00000E+000	2.84000E-001	6.96743E-004	7	...........	-327.63
	144	2.9	2.84241E-001	1.92474E-008	0.00000E+000	2.88000E-001	6.78410E-004	7	...........	-327.63
	146	2.94	2.88812E-001	1.92016E-008	0.00000E+000	2.92000E-001	6.81743E-004	7	...........	-327.63
	148	2.98	2.92397E-001	1.90849E-008	0.00000E+000	2.96000E-001	6.89243E-004	7	...........	-327.63
	150	3.02	2.96092E-001	1.89558E-008	0.00000E+000	3.00000E-001	6.95076E-004	7	...........	-327.63
	152	3.06	3.00420E-001	1.87766E-008	0.00000E+000	3.04000E-001	6.95076E-004	7	...........	-327.63
	154	3.1	3.04038E-001	1.88599E-008	0.00000E+000	3.08000E-001	6.98410E-004	7	...........	-327.63
	156	3.14	3.08183E-001	1.87474E-008	0.00000E+000	3.12000E-001	6.82576E-004	7	...........	-327.63
	158	3.18	3.11915E-001	1.87308E-008	0.00000E+000	3.16000E-001	6.76743E-004	7	...........	-327.63
	160	3.22	3.16082E-001	1.84099E-008	0.00000E+000	3.20000E-001	6.83410E-004	7	...........	-327.63
	162	3.26	3.19287E-001	1.85432E-008	0.00000E+000	3.24000E-001	6.85910E-004	7	...........	-327.63
	164	3.3	3.23977E-001	1.82474E-008	0.00000E+000	3.28000E-001	6.87576E-004	7	...........	-327.63
	166	3.34	3.29535E-001	1.76224E-008	0.00000E+000	3.32000E-001	6.98410E-004	7	..ch.......	-327.63
	168	3.38	3.32892E-001	1.76682E-008	0.00000E+000	3.36000E-001	6.87576E-004	7	...........	-327.63
	170	3.42	3.34953E-001	1.82807E-008	0.00000E+000	3.40000E-001	6.85910E-004	7	...........	-327.63
	172	3.46	3.40180E-001	1.76890E-008	0.00000E+000	3.44000E-001	6.83410E-004	7	...........	-327.63
	174	3.5	3.45554E-001	1.72099E-008	0.00000E+000	3.48000E-001	6.80076E-004	7	..ch.......	-327.63
	176	3.54	3.47052E-001	1.77515E-008	0.00000E+000	3.52000E-001	6.88410E-004	7	...........	-327.63
	178	3.58	3.52209E-001	1.69807E-008	0.00000E+000	3.56000E-001	6.85910E-004	7	...........	-327.63
	180	3.62	3.55308E-001	1.73307E-008	0.00000E+000	3.60000E-001	6.80910E-004	7	...........	-327.63
	182	3.66	3.59656E-001	1.69599E-008	0.00000E+000	3.64000E-001	6.83410E-004	7	...h.......	-327.63
	184	3.7	3.66033E-001	1.62640E-008	0.00000E+000	3.68000E-001	6.93410E-004	7	...........	-327.63
	186	3.74	3.69633E-001	1.61432E-008	0.00000E+000	3.72000E-001	6.81743E-004	7	...........	-327.63
	188	3.78	3.72934E-001	1.62015E-008	0.00000E+000	3.76000E-001	6.88410E-004	7	...........	-327.63
	190	3.82	3.77257E-001	1.61182E-008	0.00000E+000	3.80000E-001	6.80910E-004	7	...........	-327.63
	192	3.86	3.80394E-001	1.61682E-008	0.00000E+000	3.84000E-001	6.81743E-004	7	...........	-327.63
	194	3.9	3.84669E-001	1.60848E-008	0.00000E+000	3.88000E-001	6.96743E-004	7	...........	-327.63
	196	3.94	3.89608E-001	1.55056E-008	0.00000E+000	3.92000E-001	6.86743E-004	7	...........	-327.63
	198	3.98	3.92754E-001	1.54806E-008	0.00000E+000	3.96000E-001	6.85910E-004	7	...........	-327.63
	200	4.02	3.96545E-001	1.56265E-008	0.00000E+000	4.00000E-001	6.90910E-004	7	...........	-327.63
	202	4.06	4.00994E-001	1.54015E-008	0.00000E+000	4.04000E-001	6.94243E-004	7	...........	-327.63
	204	4.1	4.05190E-001	1.52431E-008	0.00000E+000	4.08000E-001	6.94243E-004	7	...........	-327.63
	206	4.14	4.09024E-001	1.51389E-008	0.00000E+000	4.12000E-001	6.84243E-004	7	...........	-327.63
	208	4.18	4.12700E-001	1.51931E-008	0.00000E+000	4.16000E-001	6.92576E-004	7	...........	-327.63
	210	4.22	4.16067E-001	1.51723E-008	0.00000E+000	4.20000E-001	6.89243E-004	7	...........	-327.63
	212	4.26	4.20402E-001	1.48514E-008	0.00000E+000	4.24000E-001	6.90910E-004	7	...........	-327.63
	214	4.3	4.25037E-001	1.45431E-008	0.00000E+000	4.28000E-001	6.86743E-004	7	...........	-327.63
	216	4.34	4.29490E-001	1.41847E-008	0.00000E+000	4.32000E-001	6.82576E-004	7	...........	-327.63
	218	4.38	4.33117E-001	1.42306E-008	0.00000E+000	4.36000E-001	6.89243E-004	7	...........	-327.63
	220	4.42	4.37987E-001	1.39681E-008	0.00000E+000	4.40000E-001	6.85076E-004	7	...........	-327.63
	222	4.46	4.41024E-001	1.40681E-008	0.00000E+000	4.44000E-001	6.87576E-004	7	...........	-327.63
	224	4.5	4.45320E-001	1.38222E-008	0.00000E+000	4.48000E-001	6.85910E-004	7	...........	-327.63
	226	4.54	4.48373E-001	1.37847E-008	0.00000E+000	4.52000E-001	6.85076E-004	7	...........	-327.63
	228	4.58	4.52295E-001	1.38681E-008	0.00000E+000	4.56000E-001	6.80076E-004	7	...........	-327.63
	230	4.62	4.55024E-001	1.38972E-008	0.00000E+000	4.60000E-001	6.85076E-004	7	...........	-327.63
	232	4.66	4.61523E-001	1.31014E-008	0.00000E+000	4.64000E-001	6.90910E-004	7	...........	-327.63
	234	4.7	4.64757E-001	1.30764E-008	0.00000E+000	4.68000E-001	6.82576E-004	7	...h.......	-327.63
	236	4.74	4.67822E-001	1.34264E-008	0.00000E+000	4.72000E-001	6.75910E-004	7	...........	-327.63
	238	4.78	4.73585E-001	1.25222E-008	0.00000E+000	4.76000E-001	6.84243E-004	7	...........	-327.63
	240	4.82	4.77959E-001	1.23388E-008	0.00000E+000	4.80000E-001	6.91743E-004	7	...........	-327.63
	242	4.86	4.82438E-001	1.21013E-008	0.00000E+000	4.84000E-001	6.92576E-004	7	...........	-327.63
	244	4.9	4.85431E-001	1.23388E-008	0.00000E+000	4.88000E-001	6.85076E-004	7	...........	-327.63
	246	4.94	4.88268E-001	1.23972E-008	0.00000E+000	4.92000E-001	6.85910E-004	7	...........	-327.63
	248	4.98	4.92310E-001	1.23055E-008	0.00000E+000	4.96000E-001	6.83410E-004	7	...........	-327.63
	250	5.02	4.98257E-001	1.14638E-008	0.00000E+000	5.00000E-001	6.90076E-004	7	...........	-327.63
	252	5.06	4.92572E-001	1.17263E-008	0.00000E+000	4.96000E-001	6.64243E-004	7	...........	-327.63
	254	5.1	4.90943E-001	1.11055E-008	0.00000E+000	4.92000E-001	6.84243E-004	7	...........	-327.63
	256	5.14	4.86490E-001	1.10596E-008	0.00000E+000	4.88000E-001	6.79243E-004	7	...........	-327.63
	258	5.18	4.82922E-001	1.06804E-008	0.00000E+000	4.84000E-001	6.90076E-004	7	...........	-327.63
	260	5.22	4.79664E-001	1.02263E-008	0.00000E+000	4.80000E-001	7.05910E-004	7	..ch.......	-327.63
	262	5.26	4.73869E-001	1.05096E-008	0.00000E+000	4.76000E-001	6.80910E-004	7	...........	-327.63
	264	5.3	4.69391E-001	1.04471E-008	0.00000E+000	4.72000E-001	6.83410E-004	7	...........	-327.63
	266	5.34	4.65591E-001	1.01929E-008	0.00000E+000	4.68000E-001	6.87576E-004	7	...........	-327.63
	268	5.38	4.61610E-001	1.01846E-008	0.00000E+000	4.64000E-001	6.85910E-004	7	...........	-327.63
	270	5.42	4.57685E-001	9.73875E-009	0.00000E+000	4.60000E-001	6.95076E-004	7	...........	-327.63
	272	5.46	4.52257E-001	9.93459E-009	0.00000E+000	4.56000E-001	6.85910E-004	7	...........	-327.63
	274	5.5	4.50529E-001	9.33040E-009	0.00000E+000	4.52000E-001	6.84243E-004	7	...........	-327.63
	276	5.54	4.46108E-001	9.20540E-009	0.00000E+000	4.48000E-001	6.79243E-004	7	...........	-327.63
	278	5.58	4.41739E-001	8.90538E-009	0.00000E+000	4.44000E-001	6.92576E-004	7	...........	-327.63
	280	5.62	4.39493E-001	8.32620E-009	0.00000E+000	4.40000E-001	6.75076E-004	7	...........	-327.63
	282	5.66	4.34045E-001	8.70954E-009	0.00000E+000	4.36000E-001	6.87576E-004	7	...........	-327.63
	284	5.7	4.29791E-001	8.29703E-009	0.00000E+000	4.32000E-001	6.88410E-004	7	...........	-327.63
	286	5.74	4.25819E-001	8.05535E-009	0.00000E+000	4.28000E-001	6.85910E-004	7	...........	-327.63
	288	5.78	4.22234E-001	7.60950E-009	0.00000E+000	4.24000E-001	6.87576E-004	7	...........	-327.63
	290	5.82	4.17849E-001	7.46366E-009	0.00000E+000	4.20000E-001	6.85910E-004	7	...........	-327.63
	292	5.86	4.14522E-001	7.14282E-009	0.00000E+000	4.16000E-001	6.80910E-004	7	...........	-327.63
	294	5.9	4.11275E-001	6.68030E-009	0.00000E+000	4.12000E-001	6.75910E-004	7	...........	-327.63
	296	5.94	4.04999E-001	7.08032E-009	0.00000E+000	4.08000E-001	6.84243E-004	7	...........	-327.63
	298	5.98	4.02740E-001	6.39696E-009	0.00000E+000	4.04000E-001	6.88410E-004	7	...........	-327.63
	300	6.02	3.99427E-001	5.78443E-009	0.00000E+000	4.00000E-001	6.95076E-004	7	...........	-327.63
	302	6.06	3.95678E-001	5.60526E-009	0.00000E+000	3.96000E-001	6.91743E-004	7	...........	-327.63
	304	6.1	3.90422E-001	5.91361E-009	0.00000E+000	3.92000E-001	6.79243E-004	7	...........	-327.63
	306	6.14	3.86561E-001	5.45942E-009	0.00000E+000	3.88000E-001	6.75910E-004	7	...........	-327.63
	308	6.18	3.82931E-001	5.03857E-009	0.00000E+000	3.84000E-001	6.94243E-004	7	...........	-327.63
	310	6.22	3.78015E-001	5.23858E-009	0.00000E+000	3.80000E-001	6.89243E-004	7	...........	-327.63
	312	6.26	3.74088E-001	4.88857E-009	0.00000E+000	3.76000E-001	6.86743E-004	7	...........	-327.63
	314	6.3	3.70903E-001	4.50105E-009	0.00000E+000	3.72000E-001	6.79243E-004	7	...........	-327.63
	316	6.34	3.67146E-001	4.20521E-009	0.00000E+000	3.68000E-001	6.80076E-004	7	...........	-327.63
	318	6.38	3.62093E-001	4.28021E-009	0.00000E+000	3.64000E-001	6.86743E-004	7	...........	-327.63
	320	6.42	3.59060E-001	3.72602E-009	0.00000E+000	3.60000E-001	6.88410E-004	7	...........	-327.63
	322	6.46	3.55257E-001	3.70936E-009	0.00000E+000	3.56000E-001	6.92576E-004	7	...........	-327.63
	324	6.5	3.50647E-001	3.55935E-009	0.00000E+000	3.52000E-001	6.87576E-004	7	...........	-327.63
	326	6.54	3.46885E-001	3.39684E-009	0.00000E+000	3.48000E-001	6.99243E-004	7	...........	-327.63
	328	6.58	3.43090E-001	3.14684E-009	0.00000E+000	3.44000E-001	6.87576E-004	7	...........	-327.63
	330	6.62	3.39381E-001	2.71765E-009	0.00000E+000	3.40000E-001	6.88410E-004	7	...........	-327.63
	332	6.66	3.35113E-001	2.42181E-009	0.00000E+000	3.36000E-001	6.85076E-004	7	...........	-327.63
	334	6.7	3.31226E-001	2.18013E-009	0.00000E+000	3.32000E-001	6.87576E-004	7	...........	-327.63
	336	6.74	3.26633E-001	2.14680E-009	0.00000E+000	3.28000E-001	6.75910E-004	7	...........	-327.63
	338	6.78	3.23870E-001	1.63011E-009	0.00000E+000	3.24000E-001	6.95910E-004	7	...........	-327.63
	340	6.82	3.19613E-001	1.53428E-009	0.00000E+000	3.20000E-001	6.74243E-004	7	...........	-327.63
	342	6.86	3.15741E-001	1.31343E-009	0.00000E+000	3.16000E-001	6.83410E-004	7	...........	-327.63
	344	6.9	3.11500E-001	1.19260E-009	0.00000E+000	3.12000E-001	6.75910E-004	7	...........	-327.63
	346	6.94	3.07371E-001	1.00926E-009	0.00000E+000	3.08000E-001	6.88410E-004	7	...........	-327.63
	348	6.98	3.03333E-001	7.63413E-010	0.00000E+000	3.04000E-001	6.81743E-004	7	...........	-327.63
	350	7.02	3.00251E-001	4.17567E-010	0.00000E+000	3.00000E-001	6.94243E-004	7	...........	-327.63
	352	7.06	2.95791E-001	3.88399E-010	0.00000E+000	2.96000E-001	6.90910E-004	7	...........	-327.63
	354	7.1	2.91632E-001	6.75542E-011	0.00000E+000	2.92000E-001	6.72576E-004	7	...........	-327.63
	356	7.14	2.86898E-001	3.00896E-010	0.00000E+000	2.88000E-001	6.84243E-004	7	...........	-327.63
	358	7.18	2.85395E-001	-6.24138E-010	0.00000E+000	2.84000E-001	6.90076E-004	7	...........	-327.63
	360	7.22	2.79819E-001	-3.32461E-010	0.00000E+000	2.80000E-001	6.81743E-004	7	...........	-327.63
	362	7.26	2.75636E-001	-7.94978E-010	0.00000E+000	2.76000E-001	6.81743E-004	7	...........	-327.63
	364	7.3	2.71498E-001	-7.61643E-010	0.00000E+000	2.72000E-001	6.80910E-004	7	...........	-327.63
	366	7.34	2.67157E-001	-8.65814E-010	0.00000E+000	2.68000E-001	6.80910E-004	7	...........	-327.63
	368	7.38	2.63342E-001	-1.01999E-009	0.00000E+000	2.64000E-001	6.80076E-004	7	...........	-327.63
	370	7.42	2.60574E-001	-1.56584E-009	0.00000E+000	2.60000E-001	6.84243E-004	7	...........	-327.63
	372	7.46	2.55197E-001	-1.38250E-009	0.00000E+000	2.56000E-001	6.85910E-004	7	...........	-327.63
	374	7.5	2.51233E-001	-1.42417E-009	0.00000E+000	2.52000E-001	6.78410E-004	7	...........	-327.63
	376	7.54	2.48427E-001	-2.12003E-009	0.00000E+000	2.48000E-001	6.90076E-004	7	...........	-327.63
	378	7.58	2.44388E-001	-2.25337E-009	0.00000E+000	2.44000E-001	6.85910E-004	7	...h.......	-327.63
	380	7.62	2.39326E-001	-2.05336E-009	0.00000E+000	2.40000E-001	6.65076E-004	7	...........	-327.63
	382	7.66	2.36433E-001	-2.35337E-009	0.00000E+000	2.36000E-001	6.89243E-004	7	...........	-327.63
	384	7.7	2.31565E-001	-2.36587E-009	0.00000E+000	2.32000E-001	6.84243E-004	7	...........	-327.63
	386	7.74	2.27722E-001	-2.54088E-009	0.00000E+000	2.28000E-001	6.83410E-004	7	...........	-327.63
	388	7.78	2.23672E-001	-2.48254E-009	0.00000E+000	2.24000E-001	6.83410E-004	7	...........	-327.63
	390	7.82	2.20004E-001	-2.67421E-009	0.00000E+000	2.20000E-001	6.93410E-004	7	...........	-327.63
	392	7.86	2.15795E-001	-2.98256E-009	0.00000E+000	2.16000E-001	6.82576E-004	7	...........	-327.63
	394	7.9	2.12612E-001	-3.18257E-009	0.00000E+000	2.12000E-001	6.84243E-004	7	...........	-327.63
	396	7.94	2.08595E-001	-3.27424E-009	0.00000E+000	2.08000E-001	6.76743E-004	7	...........	-327.63
	398	7.98	2.04255E-001	-3.52008E-009	0.00000E+000	2.04000E-001	6.77576E-004	7	...........	-327.63
	400	8.02	2.00690E-001	-3.67842E-009	0.00000E+000	2.00000E-001	6.91743E-004	7	...........	-327.63
	402	8.06	1.96845E-001	-4.11177E-009	0.00000E+000	1.96000E-001	6.89243E-004	7	...........	-327.63
	404	8.1	1.92881E-001	-4.03260E-009	0.00000E+000	1.92000E-001	6.73410E-004	7	...........	-327.63
	406	8.14	1.88140E-001	-3.86593E-009	0.00000E+000	1.88000E-001	7.00076E-004	7	...........	-327.63
	408	8.18	1.84308E-001	-4.15760E-009	0.00000E+000	1.84000E-001	6.86743E-004	7	...........	-327.63
	410	8.22	1.80310E-001	-4.19094E-009	0.00000E+000	1.80000E-001	6.84243E-004	7	...h.......	-327.63
	412	8.26	1.76426E-001	-4.41595E-009	0.00000E+000	1.76000E-001	6.87576E-004	7	...........	-327.63
	414	8.3	1.72348E-001	-4.73679E-009	0.00000E+000	1.72000E-001	6.92576E-004	7	...........	-327.63
	416	8.34	1.67646E-001	-4.85346E-009	0.00000E+000	1.68000E-001	6.91743E-004	7	...........	-327.63
	418	8.38	1.63736E-001	-4.95347E-009	0.00000E+000	1.64000E-001	6.89243E-004	7	...........	-327.63
	420	8.42	1.60556E-001	-5.29098E-009	0.00000E+000	1.60000E-001	6.80076E-004	7	...........	-327.63
	422	8.46	1.56108E-001	-5.24514E-009	0.00000E+000	1.56000E-001	6.80910E-004	7	...........	-327.63
	424	8.5	1.52658E-001	-5.61599E-009	0.00000E+000	1.52000E-001	6.81743E-004	7	...........	-327.63
	426	8.54	1.49285E-001	-5.85767E-009	0.00000E+000	1.48000E-001	6.75910E-004	7	...........	-327.63
	428	8.58	1.44508E-001	-5.72016E-009	0.00000E+000	1.44000E-001	6.84243E-004	7	...........	-327.63
	430	8.62	1.39842E-001	-5.91600E-009	0.00000E+000	1.40000E-001	6.95076E-004	7	...........	-327.63
	432	8.66	1.35864E-001	-6.04517E-009	0.00000E+000	1.36000E-001	6.73410E-004	7	...........	-327.63
	434	8.7	1.31885E-001	-6.04101E-009	0.00000E+000	1.32000E-001	6.87576E-004	7	...........	-327.63
	436	8.74	1.27902E-001	-6.42852E-009	0.00000E+000	1.28000E-001	6.85076E-004	7	...........	-327.63
	438	8.78	1.24235E-001	-6.64103E-009	0.00000E+000	1.24000E-001	6.90910E-004	7	...........	-327.63
	440	8.82	1.20088E-001	-6.69103E-009	0.00000E+000	1.20000E-001	6.90910E-004	7	...........	-327.63
	442	8.86	1.16694E-001	-7.07021E-009	0.00000E+000	1.16000E-001	6.91743E-004	7	...........	-327.63
	444	8.9	1.12003E-001	-6.96187E-009	0.00000E+000	1.12000E-001	6.82576E-004	7	...........	-327.63
	446	8.94	1.09491E-001	-7.40356E-009	0.00000E+000	1.08000E-001	6.87576E-004	7	...........	-327.63
	448	8.98	1.05329E-001	-7.71607E-009	0.00000E+000	1.04000E-001	6.81743E-004	7	...........	-327.63
	450	9.02	1.01471E-001	-7.89108E-009	0.00000E+000	1.00000E-001	6.91743E-004	7	...........	-327.63
	452	9.06	9.76617E-002	-7.89941E-009	0.00000E+000	9.60000E-002	6.85910E-004	7	...........	-327.63
	454	9.1	9.35588E-002	-8.02441E-009	0.00000E+000	9.20000E-002	6.85076E-004	7	...........	-327.63
	456	9.14	8.93147E-002	-8.07025E-009	0.00000E+000	8.80000E-002	6.80910E-004	7	...........	-327.63
	458	9.18	8.41747E-002	-8.03691E-009	0.00000E+000	8.40000E-002	6.81743E-004	7	...........	-327.63
	460	9.22	8.02126E-002	-8.24109E-009	0.00000E+000	8.00000E-002	6.74243E-004	7	...........	-327.63
	462	9.26	7.68788E-002	-8.65777E-009	0.00000E+000	7.60000E-002	6.88410E-004	7	...........	-327.63
	464	9.3	7.32843E-002	-8.92861E-009	0.00000E+000	7.20000E-002	6.85910E-004	7	...h.......	-327.63
	466	9.34	6.87376E-002	-8.82444E-009	0.00000E+000	6.80000E-002	6.93410E-004	7	...h.......	-327.63
	468	9.38	6.61776E-002	-9.34113E-009	0.00000E+000	6.40000E-002	6.90910E-004	7	...........	-327.63
	470	9.42	6.27467E-002	-9.50364E-009	0.00000E+000	6.00000E-002	6.79243E-004	7	...........	-327.63
	472	9.46	5.78976E-002	-9.52030E-009	0.00000E+000	5.60000E-002	6.75076E-004	7	...h.......	-327.63
	474	9.5	5.23759E-002	-9.20779E-009	0.00000E+000	5.20000E-002	6.89243E-004	7	...........	-327.63
	476	9.54	5.06705E-002	-9.74531E-009	0.00000E+000	4.80000E-002	6.87576E-004	7	...........	-327.63
	478	9.58	4.59076E-002	-9.80365E-009	0.00000E+000	4.40000E-002	6.87576E-004	7	...........	-327.63
	480	9.62	4.24772E-002	-9.99949E-009	0.00000E+000	4.00000E-002	6.92576E-004	7	...........	-327.63
	482	9.66	3.85368E-002	-1.02328E-008	0.00000E+000	3.60000E-002	6.84243E-004	7	...........	-327.63
	484	9.7	3.40547E-002	-1.02287E-008	0.00000E+000	3.20000E-002	6.77576E-004	7	...h.......	-327.63
	486	9.74	2.84147E-002	-9.77865E-009	0.00000E+000	2.80000E-002	6.89243E-004	7	...h.......	-327.63
	488	9.78	2.61230E-002	-1.05078E-008	0.00000E+000	2.40000E-002	6.81743E-004	7	...........	-327.63
	490	9.82	2.22434E-002	-1.04370E-008	0.00000E+000	2.00000E-002	6.75076E-004	7	...h.......	-327.63
	492	9.86	1.82393E-002	-1.05953E-008	0.00000E+000	1.60000E-002	6.90076E-004	7	...........	-327.63
	494	9.9	1.42576E-002	-1.06495E-008	0.00000E+000	1.20000E-002	6.89243E-004	7	...........	-327.63
	496	9.94	1.03809E-002	-1.08995E-008	0.00000E+000	8.00000E-003	6.84243E-004	7	...........	-327.63
	498	9.98	4.56467E-003	-1.05412E-008	0.00000E+000	4.00000E-003	6.87576E-004	7	...........	-327.63
	500	10.02	1.76801E-003	-1.09745E-008	0.00000E+000	0.00000E+000	6.72576E-004	7	...........	-327.63
	502	10.06	-2.16199E-003	-1.10954E-008	0.00000E+000	-4.00000E-003	6.90076E-004	7	...........	-327.63
	504	10.1	-5.67949E-003	-1.11329E-008	0.00000E+000	-8.00000E-003	6.83410E-004	7	...........	-327.63
	506	10.14	-9.94283E-003	-1.13162E-008	0.00000E+000	-1.20000E-002	7.00076E-004	7	...........	-327.63
	508	10.18	-1.42778E-002	-1.13662E-008	0.00000E+000	-1.60000E-002	6.83410E-004	7	...........	-327.63
	510	10.22	-1.93345E-002	-1.12079E-008	0.00000E+000	-2.00000E-002	6.86743E-004	7	...........	-327.63
	512	10.26	-2.33149E-002	-1.11495E-008	0.00000E+000	-2.40000E-002	6.97576E-004	7	...........	-327.63
	514	10.3	-2.56482E-002	-1.16912E-008	0.00000E+000	-2.80000E-002	7.04243E-004	7	...........	-327.63
	516	10.34	-2.90391E-002	-1.18996E-008	0.00000E+000	-3.20000E-002	6.87576E-004	7	...........	-327.63
	518	10.38	-3.41966E-002	-1.17287E-008	0.00000E+000	-3.60000E-002	6.95910E-004	7	...........	-327.63
	520	10.42	-3.71557E-002	-1.22371E-008	0.00000E+000	-4.00000E-002	6.94243E-004	7	...........	-327.63
	522	10.46	-4.28578E-002	-1.18412E-008	0.00000E+000	-4.40000E-002	6.83410E-004	7	...h.......	-327.63
	524	10.5	-4.50332E-002	-1.21662E-008	0.00000E+000	-4.80000E-002	6.83410E-004	7	...........	-327.63
	526	10.54	-4.91432E-002	-1.23371E-008	0.00000E+000	-5.20000E-002	6.77576E-004	7	...........	-327.63
	528	10.58	-5.47641E-002	-1.22079E-008	0.00000E+000	-5.60000E-002	6.91743E-004	7	...h.......	-327.63
	530	10.62	-5.70437E-002	-1.26788E-008	0.00000E+000	-6.00000E-002	6.84243E-004	7	...........	-327.63
	532	10.66	-6.09553E-002	-1.27329E-008	0.00000E+000	-6.40000E-002	6.95076E-004	7	...........	-327.63
	534	10.7	-6.50116E-002	-1.28079E-008	0.00000E+000	-6.80000E-002	6.87576E-004	7	...........	-327.63
	536	10.74	-6.88412E-002	-1.28413E-008	0.00000E+000	-7.20000E-002	6.79243E-004	7	...........	-327.63
	538	10.78	-7.29137E-002	-1.30038E-008	0.00000E+000	-7.60000E-002	6.83410E-004	7	...........	-327.63
	540	10.82	-7.68270E-002	-1.31413E-008	0.00000E+000	-8.00000E-002	6.90910E-004	7	...........	-327.63
	542	10.86	-8.05862E-002	-1.32954E-008	0.00000E+000	-8.40000E-002	6.90076E-004	7	...........	-327.63
	544	10.9	-8.49620E-002	-1.33496E-008	0.00000E+000	-8.80000E-002	6.95076E-004	7	...h.......	-327.63
	546	10.94	-8.87374E-002	-1.34704E-008	0.00000E+000	-9.20000E-002	6.88410E-004	7	...........	-327.63
	548	10.98	-9.35882E-002	-1.32746E-008	0.00000E+000	-9.60000E-002	6.90910E-004	7	...........	-327.63
	550	11.02	-9.86074E-002	-1.29788E-008	0.00000E+000	-1.00000E-001	6.81743E-004	7	...........	-327.63
	552	11.06	-1.00630E-001	-1.34704E-008	0.00000E+000	-1.04000E-001	6.81743E-004	7	...........	-327.63
	554	11.1	-1.04708E-001	-1.34079E-008	0.00000E+000	-1.08000E-001	7.00076E-004	7	...........	-327.63
	556	11.14	-1.08586E-001	-1.35163E-008	0.00000E+000	-1.12000E-001	6.87576E-004	7	...........	-327.63
	558	11.18	-1.12544E-001	-1.36580E-008	0.00000E+000	-1.16000E-001	6.94243E-004	7	...........	-327.63
	560	11.22	-1.16642E-001	-1.35580E-008	0.00000E+000	-1.20000E-001	6.89243E-004	7	...........	-327.63
	562	11.26	-1.19992E-001	-1.36163E-008	0.00000E+000	-1.24000E-001	6.85076E-004	7	...........	-327.63
	564	11.3	-1.24469E-001	-1.36455E-008	0.00000E+000	-1.28000E-001	6.95910E-004	7	...........	-327.63
	566	11.34	-1.28493E-001	-1.35996E-008	0.00000E+000	-1.32000E-001	6.87576E-004	7	...h.......	-327.63
	568	11.38	-1.32353E-001	-1.38163E-008	0.00000E+000	-1.36000E-001	6.88410E-004	7	...........	-327.63
	570	11.42	-1.37860E-001	-1.33996E-008	0.00000E+000	-1.40000E-001	6.88410E-004	7	...h.......	-327.63
	572	11.46	-1.41137E-001	-1.35830E-008	0.00000E+000	-1.44000E-001	6.83410E-004	7	..ch.......	-327.63
	574	11.5	-1.46291E-001	-1.31996E-008	0.00000E+000	-1.48000E-001	6.90076E-004	7	...h.......	-327.63
	576	11.54	-1.49426E-001	-1.33579E-008	0.00000E+000	-1.52000E-001	6.90910E-004	7	...........	-327.63
	578	11.58	-1.53728E-001	-1.33663E-008	0.00000E+000	-1.56000E-001	6.88410E-004	7	...h.......	-327.63
	580	11.62	-1.56228E-001	-1.38913E-008	0.00000E+000	-1.60000E-001	6.89243E-004	7	...h.......	-327.63
	582	11.66	-1.60293E-001	-1.37663E-008	0.00000E+000	-1.64000E-001	6.85910E-004	7	...........	-327.63
	584	11.7	-1.66309E-001	-1.33454E-008	0.00000E+000	-1.68000E-001	6.97576E-004	7	...........	-327.63
	586	11.74	-1.68225E-001	-1.38038E-008	0.00000E+000	-1.72000E-001	6.85076E-004	7	...........	-327.63
	588	11.78	-1.74620E-001	-1.34413E-008	0.00000E+000	-1.76000E-001	6.89243E-004	7	..ch.......	-327.63
	590	11.82	-1.76723E-001	-1.37496E-008	0.00000E+000	-1.80000E-001	6.85076E-004	7	...h.......	-327.63
	592	11.86	-1.81694E-001	-1.33871E-008	0.00000E+000	-1.84000E-001	6.95910E-004	7	...........	-327.63
	594	11.9	-1.84471E-001	-1.39038E-008	0.00000E+000	-1.88000E-001	6.90910E-004	7	...........	-327.63
	596	11.94	-1.89272E-001	-1.36121E-008	0.00000E+000	-1.92000E-001	7.02576E-004	7	...h.......	-327.63
	598	11.98	-1.92101E-001	-1.40288E-008	0.00000E+000	-1.96000E-001	6.84243E-004	7	...h.......	-327.63
	600	12.02	-1.96609E-001	-1.40705E-008	0.00000E+000	-2.00000E-001	6.93410E-004	7	...........	-327.63
	602	12.06	-2.01329E-001	-1.37705E-008	0.00000E+000	-2.04000E-001	6.95076E-004	7	...h.......	-327.63
	604	12.1	-2.06070E-001	-1.36371E-008	0.00000E+000	-2.08000E-001	6.97576E-004	7	...........	-327.63
	606	12.14	-2.07928E-001	-1.41121E-008	0.00000E+000	-2.12000E-001	7.00910E-004	7	...........	-327.63
	608	12.18	-2.14630E-001	-1.33871E-008	0.00000E+000	-2.16000E-001	6.83410E-004	7	...h.......	-327.63
	610	12.22	-2.18677E-001	-1.34371E-008	0.00000E+000	-2.20000E-001	6.90910E-004	7	...........	-327.63
	612	12.26	-2.19889E-001	-1.40246E-008	0.00000E+000	-2.24000E-001	6.90076E-004	7	...........	-327.63
	614	12.3	-2.25249E-001	-1.37496E-008	0.00000E+000	-2.28000E-001	6.83410E-004	7	..ch.......	-327.63
	616	12.34	-2.28362E-001	-1.38621E-008	0.00000E+000	-2.32000E-001	6.87576E-004	7	...........	-327.63
	618	12.38	-2.32890E-001	-1.36121E-008	0.00000E+000	-2.36000E-001	6.85910E-004	7	...........	-327.63
	620	12.42	-2.37879E-001	-1.37288E-008	0.00000E+000	-2.40000E-001	6.95910E-004	7	...........	-327.63
	622	12.46	-2.40794E-001	-1.37746E-008	0.00000E+000	-2.44000E-001	6.99243E-004	7	...h.......	-327.63
	624	12.5	-2.43742E-001	-1.39330E-008	0.00000E+000	-2.48000E-001	6.90910E-004	7	...........	-327.63
	626	12.54	-2.49458E-001	-1.34704E-008	0.00000E+000	-2.52000E-001	6.95910E-004	7	...........	-327.63
	628	12.58	-2.51725E-001	-1.41580E-008	0.00000E+000	-2.56000E-001	6.97576E-004	7	...........	-327.63
	630	12.62	-2.56205E-001	-1.40913E-008	0.00000E+000	-2.60000E-001	6.96743E-004	7	...........	-327.63
	632	12.66	-2.58897E-001	-1.41955E-008	0.00000E+000	-2.64000E-001	6.89243E-004	7	...........	-327.63
	634	12.7	-2.64467E-001	-1.38996E-008	0.00000E+000	-2.68000E-001	6.80910E-004	7	...........	-327.63
	636	12.74	-2.68559E-001	-1.37371E-008	0.00000E+000	-2.72000E-001	6.98410E-004	7	...........	-327.63
	638	12.78	-2.72427E-001	-1.38955E-008	0.00000E+000	-2.76000E-001	6.90076E-004	7	...........	-327.63
	640	12.82	-2.78425E-001	-1.34871E-008	0.00000E+000	-2.80000E-001	6.86743E-004	7	...........	-327.63
	642	12.86	-2.81888E-001	-1.35455E-008	0.00000E+000	-2.84000E-001	6.98410E-004	7	...........	-327.63
	644	12.9	-2.84442E-001	-1.41163E-008	0.00000E+000	-2.88000E-001	6.85910E-004	7	...........	-327.63
	646	12.94	-2.88749E-001	-1.37955E-008	0.00000E+000	-2.92000E-001	7.05910E-004	7	...........	-327.63
	648	12.98	-2.92477E-001	-1.39996E-008	0.00000E+000	-2.96000E-001	6.91743E-004	7	...........	-327.63
	650	13.02	-2.98627E-001	-1.34746E-008	0.00000E+000	-3.00000E-001	6.90910E-004	7	...........	-327.63
	652	13.06	-2.99498E-001	-1.42121E-008	0.00000E+000	-3.04000E-001	6.82576E-004	7	...........	-327.63
	654	13.1	-3.04915E-001	-1.38330E-008	0.00000E+000	-3.08000E-001	6.80910E-004	7	...........	-327.63
	656	13.14	-3.08755E-001	-1.36538E-008	0.00000E+000	-3.12000E-001	6.85076E-004	7	...........	-327.63
	658	13.18	-3.12421E-001	-1.39371E-008	0.00000E+000	-3.16000E-001	6.95076E-004	7	...........	-327.63
	660	13.22	-3.15981E-001	-1.39955E-008	0.00000E+000	-3.20000E-001	6.97576E-004	7	...........	-327.63
	662	13.26	-3.20136E-001	-1.38621E-008	0.00000E+000	-3.24000E-001	6.86743E-004	7	...........	-327.63
	664	13.3	-3.24804E-001	-1.35955E-008	0.00000E+000	-3.28000E-001	6.77576E-004	7	...........	-327.63
	666	13.34	-3.30259E-001	-1.33121E-008	0.00000E+000	-3.32000E-001	6.90076E-004	7	...h.......	-327.63
	668	13.38	-3.32350E-001	-1.37205E-008	0.00000E+000	-3.36000E-001	6.86743E-004	7	...........	-327.63
	670	13.42	-3.38071E-001	-1.34871E-008	0.00000E+000	-3.40000E-001	6.95910E-004	7	..ch.......	-327.63
	672	13.46	-3.39294E-001	-1.40663E-008	0.00000E+000	-3.44000E-001	6.99243E-004	7	...........	-327.63
	674	13.5	-3.45081E-001	-1.34371E-008	0.00000E+000	-3.48000E-001	6.90910E-004	7	...........	-327.63
	676	13.54	-3.49224E-001	-1.34371E-008	0.00000E+000	-3.52000E-001	6.88410E-004	7	...........	-327.63
	678	13.58	-3.52577E-001	-1.34621E-008	0.00000E+000	-3.56000E-001	6.82576E-004	7	...........	-327.63
	680	13.62	-3.57656E-001	-1.31454E-008	0.00000E+000	-3.60000E-001	6.70076E-004	7	...........	-327.63
	682	13.66	-3.61216E-001	-1.32454E-008	0.00000E+000	-3.64000E-001	6.86743E-004	7	...........	-327.63
	684	13.7	-3.65237E-001	-1.30788E-008	0.00000E+000	-3.68000E-001	6.83410E-004	7	...h.......	-327.63
	686	13.74	-3.69087E-001	-1.33038E-008	0.00000E+000	-3.72000E-001	6.87576E-004	7	...........	-327.63
	688	13.78	-3.73014E-001	-1.33329E-008	0.00000E+000	-3.76000E-001	6.94243E-004	7	...........	-327.63
	690	13.82	-3.78117E-001	-1.25871E-008	0.00000E+000	-3.80000E-001	6.85910E-004	7	...........	-327.63
	692	13.86	-3.79483E-001	-1.32079E-008	0.00000E+000	-3.84000E-001	6.81743E-004	7	...........	-327.63
	694	13.9	-3.84518E-001	-1.29746E-008	0.00000E+000	-3.88000E-001	6.80910E-004	7	...........	-327.63
	696	13.94	-3.88580E-001	-1.29121E-008	0.00000E+000	-3.92000E-001	6.85076E-004	7	...........	-327.63
	698	13.98	-3.93762E-001	-1.26913E-008	0.00000E+000	-3.96000E-001	6.97576E-004	7	...........	-327.63
	700	14.02	-3.98337E-001	-1.22704E-008	0.00000E+000	-4.00000E-001	6.85076E-004	7	...........	-327.63
	702	14.06	-3.99414E-001	-1.29913E-008	0.00000E+000	-4.04000E-001	6.86743E-004	7	...........	-327.63
	704	14.1	-4.04926E-001	-1.25996E-008	0.00000E+000	-4.08000E-001	6.85076E-004	7	...........	-327.63
	706	14.14	-4.09147E-001	-1.26288E-008	0.00000E+000	-4.12000E-001	6.91743E-004	7	...........	-327.63
	708	14.18	-4.14005E-001	-1.22412E-008	0.00000E+000	-4.16000E-001	6.95076E-004	7	...........	-327.63
	710	14.22	-4.18887E-001	-1.21121E-008	0.00000E+000	-4.20000E-001	6.99243E-004	7	...h.......	-327.63
	712	14.26	-4.22285E-001	-1.22579E-008	0.00000E+000	-4.24000E-001	6.88410E-004	7	...........	-327.63
	714	14.3	-4.27042E-001	-1.18287E-008	0.00000E+000	-4.28000E-001	6.94243E-004	7	..ch.......	-327.63
	716	14.34	-4.30559E-001	-1.21662E-008	0.00000E+000	-4.32000E-001	6.80910E-004	7	...........	-327.63
	718	14.38	-4.35592E-001	-1.17996E-008	0.00000E+000	-4.36000E-001	6.90910E-004	7	...........	-327.63
	720	14.42	-4.36743E-001	-1.23662E-008	0.00000E+000	-4.40000E-001	6.93410E-004	7	...........	-327.63
	722	14.46	-4.39440E-001	-1.27038E-008	0.00000E+000	-4.44000E-001	6.93410E-004	7	...........	-327.63
	724	14.5	-4.46554E-001	-1.18954E-008	0.00000E+000	-4.48000E-001	6.91743E-004	7	...........	-327.63
	726	14.54	-4.49723E-001	-1.18121E-008	0.00000E+000	-4.52000E-001	6.90910E-004	7	...........	-327.63
	728	14.58	-4.53177E-001	-1.19662E-008	0.00000E+000	-4.56000E-001	6.86743E-004	7	...........	-327.63
	730	14.62	-4.55838E-001	-1.23246E-008	0.00000E+000	-4.60000E-001	6.89243E-004	7	...........	-327.63
	732	14.66	-4.63603E-001	-1.10454E-008	0.00000E+000	-4.64000E-001	6.86743E-004	7	..ch.......	-327.63
	734	14.7	-4.64753E-001	-1.15120E-008	0.00000E+000	-4.68000E-001	6.95910E-004	7	...........	-327.63
	736	14.74	-4.69755E-001	-1.13745E-008	0.00000E+000	-4.72000E-001	6.94243E-004	7	...........	-327.63
	738	14.78	-4.73463E-001	-1.12454E-008	0.00000E+000	-4.76000E-001	6.86743E-004	7	...........	-327.63
	740	14.82	-4.78892E-001	-1.06912E-008	0.00000E+000	-4.80000E-001	6.85076E-004	7	...........	-327.63
	742	14.86	-4.82624E-001	-1.08454E-008	0.00000E+000	-4.84000E-001	6.83410E-004	7	...........	-327.63
	744	14.9	-4.86659E-001	-1.10662E-008	0.00000E+000	-4.88000E-001	6.87576E-004	7	..ch.......	-327.63
	746	14.94	-4.89351E-001	-1.08912E-008	0.00000E+000	-4.92000E-001	6.89243E-004	7	...........	-327.63
	748	14.98	-4.94159E-001	-1.06203E-008	0.00000E+000	-4.96000E-001	6.95076E-004	7	...........	-327.63
	750	15.02	-4.97409E-001	-1.05995E-008	0.00000E+000	-5.00000E-001	6.74243E-004	7	...........	-327.63
CURVE2	TABLE
	Pt	T	Vf	Im	Vu	Sig	Ach	IERange	Over	Temp
	#	s	V vs. Ref.	A	V	V	V	#	bits	deg C
	751	15.04	-4.95613E-001	-1.04412E-008	0.00000E+000	-4.98000E-001	6.26743E-004	7	...........	-327.63
	753	15.08	-4.92002E-001	-1.01620E-008	0.00000E+000	-4.94000E-001	6.22576E-004	7	...........	-327.63
	755	15.12	-4.87672E-001	-9.97032E-009	0.00000E+000	-4.90000E-001	6.11743E-004	7	...........	-327.63
	757	15.16	-4.84283E-001	-9.87032E-009	0.00000E+000	-4.86000E-001	6.22576E-004	7	...........	-327.63
	759	15.2	-4.80209E-001	-9.79531E-009	0.00000E+000	-4.82000E-001	6.15910E-004	7	...........	-327.63
[...]
	2803	56.08	-3.98819E-001	2.06225E-008	0.00000E+000	-3.94000E-001	4.33410E-004	7	...h.......	-327.63
	2804	56.1	-3.96432E-001	2.06683E-008	0.00000E+000	-3.92000E-001	4.22576E-004	7	...........	-327.63
	2805	56.12	-3.92455E-001	2.02350E-008	0.00000E+000	-3.90000E-001	4.30076E-004	7	..ch.......	-327.63
	2806	56.14	-3.93836E-001	2.10850E-008	0.00000E+000	-3.88000E-001	4.10910E-004	7	..ch.......	-327.63
	2807	56.16	-3.88327E-001	2.02475E-008	0.00000E+000	-3.86000E-001	4.19243E-004	7	...h.......	-327.63
	2808	56.18	-3.89216E-001	2.10142E-008	0.00000E+000	-3.84000E-001	4.25910E-004	7	...........	-327.63
	2809	56.2	-3.87219E-001	2.09767E-008	0.00000E+000	-3.82000E-001	4.15076E-004	7	...........	-327.63
	2810	56.22	-3.85214E-001	2.08350E-008	0.00000E+000	-3.80000E-001	4.10076E-004	7	...........	-327.63
	2811	56.24	-3.83150E-001	2.07933E-008	0.00000E+000	-3.78000E-001	4.09243E-004	7	...h.......	-327.63
	2812	56.26	-3.81210E-001	2.07558E-008	0.00000E+000	-3.76000E-001	4.13410E-004	7	...........	-327.63
	2813	56.28	-3.79164E-001	2.08225E-008	0.00000E+000	-3.74000E-001	4.12576E-004	7	...........	-327.63
	2814	56.3	-3.75672E-001	2.02308E-008	0.00000E+000	-3.72000E-001	4.22576E-004	7	...........	-327.63
	2815	56.32	-3.75055E-001	2.06100E-008	0.00000E+000	-3.70000E-001	4.15076E-004	7	...........	-327.63
	2816	56.34	-3.73250E-001	2.11058E-008	0.00000E+000	-3.68000E-001	4.34243E-004	7	...........	-327.63
	2817	56.36	-3.71271E-001	2.08308E-008	0.00000E+000	-3.66000E-001	4.28410E-004	7	...........	-327.63
	2818	56.38	-3.69277E-001	2.10600E-008	0.00000E+000	-3.64000E-001	4.23410E-004	7	...........	-327.63
	2819	56.4	-3.66841E-001	2.08267E-008	0.00000E+000	-3.62000E-001	4.35910E-004	7	...h.......	-327.63
	2820	56.42	-3.65306E-001	2.09725E-008	0.00000E+000	-3.60000E-001	4.30076E-004	7	...........	-327.63
	2821	56.44	-3.63327E-001	2.09600E-008	0.00000E+000	-3.58000E-001	4.20076E-004	7	...........	-327.63
	2822	56.46	-3.61323E-001	2.09975E-008	0.00000E+000	-3.56000E-001	4.35910E-004	7	...........	-327.63
	2823	56.48	-3.59268E-001	2.09850E-008	0.00000E+000	-3.54000E-001	4.11743E-004	7	...........	-327.63
	2824	56.5	-3.57275E-001	2.11058E-008	0.00000E+000	-3.52000E-001	4.10910E-004	7	...........	-327.63
	2825	56.52	-3.54885E-001	2.10642E-008	0.00000E+000	-3.50000E-001	4.14243E-004	7	...........	-327.63
	2826	56.54	-3.51937E-001	2.08183E-008	0.00000E+000	-3.48000E-001	4.11743E-004	7	...........	-327.63
	2827	56.56	-3.49990E-001	2.07183E-008	0.00000E+000	-3.46000E-001	4.15910E-004	7	...........	-327.63
	2828	56.58	-3.49296E-001	2.11142E-008	0.00000E+000	-3.44000E-001	4.20076E-004	7	...........	-327.63
	2829	56.6	-3.46282E-001	2.09058E-008	0.00000E+000	-3.42000E-001	4.11743E-004	7	...........	-327.63
	2830	56.62	-3.45412E-001	2.10767E-008	0.00000E+000	-3.40000E-001	4.12576E-004	7	...........	-327.63
	2831	56.64	-3.43450E-001	2.13558E-008	0.00000E+000	-3.38000E-001	4.33410E-004	7	...........	-327.63
	2832	56.66	-3.41487E-001	2.13725E-008	0.00000E+000	-3.36000E-001	4.20910E-004	7	...........	-327.63
	2833	56.68	-3.39504E-001	2.13392E-008	0.00000E+000	-3.34000E-001	4.18410E-004	7	...........	-327.63
	2834	56.7	-3.37458E-001	2.12225E-008	0.00000E+000	-3.32000E-001	4.14243E-004	7	...........	-327.63
	2835	56.72	-3.35116E-001	2.13058E-008	0.00000E+000	-3.30000E-001	4.27576E-004	7	...........	-327.63
	2836	56.74	-3.33439E-001	2.12892E-008	0.00000E+000	-3.28000E-001	4.15076E-004	7	...........	-327.63
	2837	56.76	-3.31489E-001	2.13058E-008	0.00000E+000	-3.26000E-001	4.10076E-004	7	...........	-327.63
	2838	56.78	-3.29480E-001	2.12475E-008	0.00000E+000	-3.24000E-001	4.30076E-004	7	...........	-327.63
	2839	56.8	-3.27455E-001	2.12600E-008	0.00000E+000	-3.22000E-001	4.04243E-004	7	...........	-327.63
	2840	56.82	-3.25447E-001	2.13392E-008	0.00000E+000	-3.20000E-001	4.23410E-004	7	...........	-327.63
	2841	56.84	-3.23394E-001	2.10142E-008	0.00000E+000	-3.18000E-001	4.08410E-004	7	...........	-327.63
	2842	56.86	-3.19083E-001	2.09225E-008	0.00000E+000	-3.16000E-001	4.20910E-004	7	..ch.......	-327.63
	2843	56.88	-3.19512E-001	2.13100E-008	0.00000E+000	-3.14000E-001	4.25076E-004	7	...........	-327.63
	2844	56.9	-3.17552E-001	2.13350E-008	0.00000E+000	-3.12000E-001	4.44243E-004	7	...........	-327.63
	2845	56.92	-3.15569E-001	2.14017E-008	0.00000E+000	-3.10000E-001	4.14243E-004	7	...........	-327.63
	2846	56.94	-3.13527E-001	2.13267E-008	0.00000E+000	-3.08000E-001	4.17576E-004	7	...........	-327.63
	2847	56.96	-3.11534E-001	2.13100E-008	0.00000E+000	-3.06000E-001	4.20910E-004	7	...........	-327.63
	2848	56.98	-3.09518E-001	2.12183E-008	0.00000E+000	-3.04000E-001	4.15076E-004	7	...........	-327.63
	2849	57	-3.07494E-001	2.12600E-008	0.00000E+000	-3.02000E-001	4.05076E-004	7	...........	-327.63
	2850	57.02	-3.04917E-001	2.11642E-008	0.00000E+000	-3.00000E-001	4.15076E-004	7	...h.......	-327.63
	2851	57.04	-3.03511E-001	2.11975E-008	0.00000E+000	-2.98000E-001	4.17576E-004	7	...........	-327.63
	2852	57.06	-3.01458E-001	2.11433E-008	0.00000E+000	-2.96000E-001	4.20910E-004	7	...........	-327.63
	2853	57.08	-2.99384E-001	2.07642E-008	0.00000E+000	-2.94000E-001	4.05076E-004	7	...........	-327.63
	2854	57.1	-2.97554E-001	2.12892E-008	0.00000E+000	-2.92000E-001	4.19243E-004	7	...........	-327.63
	2855	57.12	-2.95558E-001	2.12642E-008	0.00000E+000	-2.90000E-001	4.14243E-004	7	...........	-327.63
	2856	57.14	-2.93571E-001	2.11058E-008	0.00000E+000	-2.88000E-001	4.17576E-004	7	...........	-327.63
	2857	57.16	-2.91449E-001	2.09558E-008	0.00000E+000	-2.86000E-001	4.29243E-004	7	...........	-327.63
	2858	57.18	-2.89593E-001	2.11642E-008	0.00000E+000	-2.84000E-001	4.25910E-004	7	...........	-327.63
	2859	57.2	-2.87525E-001	2.10392E-008	0.00000E+000	-2.82000E-001	4.02576E-004	7	...........	-327.63
	2860	57.22	-2.83398E-001	2.04225E-008	0.00000E+000	-2.80000E-001	4.20910E-004	7	...........	-327.63
	2861	57.24	-2.81358E-001	2.04766E-008	0.00000E+000	-2.78000E-001	4.10910E-004	7	...........	-327.63
	2862	57.26	-2.81278E-001	2.10183E-008	0.00000E+000	-2.76000E-001	4.15910E-004	7	...........	-327.63
	2863	57.28	-2.79520E-001	2.09100E-008	0.00000E+000	-2.74000E-001	4.05910E-004	7	...........	-327.63
	2864	57.3	-2.77499E-001	2.10808E-008	0.00000E+000	-2.72000E-001	4.12576E-004	7	...........	-327.63
	2865	57.32	-2.75462E-001	2.08808E-008	0.00000E+000	-2.70000E-001	4.11743E-004	7	...........	-327.63
	2866	57.34	-2.70473E-001	2.00891E-008	0.00000E+000	-2.68000E-001	4.30076E-004	7	...h.......	-327.63
	2867	57.36	-2.71426E-001	2.08308E-008	0.00000E+000	-2.66000E-001	4.23410E-004	7	...........	-327.63
	2868	57.38	-2.69527E-001	2.09933E-008	0.00000E+000	-2.64000E-001	4.16743E-004	7	...........	-327.63
	2869	57.4	-2.67555E-001	2.09475E-008	0.00000E+000	-2.62000E-001	4.12576E-004	7	...........	-327.63
	2870	57.42	-2.65569E-001	2.08558E-008	0.00000E+000	-2.60000E-001	4.30076E-004	7	...........	-327.63
	2871	57.44	-2.63556E-001	2.10183E-008	0.00000E+000	-2.58000E-001	4.17576E-004	7	...........	-327.63
	2872	57.46	-2.61453E-001	2.10058E-008	0.00000E+000	-2.56000E-001	4.31743E-004	7	...........	-327.63
	2873	57.48	-2.58503E-001	2.07225E-008	0.00000E+000	-2.54000E-001	4.20910E-004	7	...........	-327.63
	2874	57.5	-2.57319E-001	2.08558E-008	0.00000E+000	-2.52000E-001	4.15076E-004	7	...........	-327.63
	2875	57.52	-2.55538E-001	2.08683E-008	0.00000E+000	-2.50000E-001	4.15076E-004	7	...........	-327.63
	2876	57.54	-2.53510E-001	2.07808E-008	0.00000E+000	-2.48000E-001	4.23410E-004	7	...........	-327.63
	2877	57.56	-2.51555E-001	2.10642E-008	0.00000E+000	-2.46000E-001	4.30076E-004	7	...........	-327.63
	2878	57.58	-2.49571E-001	2.07767E-008	0.00000E+000	-2.44000E-001	4.10910E-004	7	...........	-327.63
	2879	57.6	-2.47526E-001	2.06933E-008	0.00000E+000	-2.42000E-001	4.19243E-004	7	...........	-327.63
	2880	57.62	-2.45532E-001	2.09350E-008	0.00000E+000	-2.40000E-001	4.26743E-004	7	...........	-327.63
	2881	57.64	-2.42558E-001	2.06183E-008	0.00000E+000	-2.38000E-001	4.25910E-004	7	...........	-327.63
	2882	57.66	-2.39422E-001	2.02600E-008	0.00000E+000	-2.36000E-001	4.16743E-004	7	...........	-327.63
	2883	57.68	-2.39568E-001	2.07517E-008	0.00000E+000	-2.34000E-001	4.26743E-004	7	...........	-327.63
	2884	57.7	-2.34976E-001	2.01391E-008	0.00000E+000	-2.32000E-001	4.22576E-004	7	...........	-327.63
	2885	57.72	-2.33854E-001	2.00725E-008	0.00000E+000	-2.30000E-001	4.32576E-004	7	...........	-327.63
	2886	57.74	-2.30714E-001	1.97100E-008	0.00000E+000	-2.28000E-001	4.10910E-004	7	...........	-327.63
	2887	57.76	-2.29441E-001	1.98933E-008	0.00000E+000	-2.26000E-001	4.18410E-004	7	...........	-327.63
	2888	57.78	-2.27029E-001	1.98725E-008	0.00000E+000	-2.24000E-001	4.19243E-004	7	...........	-327.63
	2889	57.8	-2.24992E-001	1.96308E-008	0.00000E+000	-2.22000E-001	4.23410E-004	7	...........	-327.63
	2890	57.82	-2.23018E-001	1.95266E-008	0.00000E+000	-2.20000E-001	4.20076E-004	7	...........	-327.63
	2891	57.84	-2.21395E-001	1.95933E-008	0.00000E+000	-2.18000E-001	4.20076E-004	7	...........	-327.63
	2892	57.86	-2.19190E-001	1.94308E-008	0.00000E+000	-2.16000E-001	4.22576E-004	7	...........	-327.63
	2893	57.88	-2.17255E-001	1.96641E-008	0.00000E+000	-2.14000E-001	4.17576E-004	7	...........	-327.63
	2894	57.9	-2.15422E-001	1.97016E-008	0.00000E+000	-2.12000E-001	4.40910E-004	7	...........	-327.63
	2895	57.92	-2.14331E-001	1.99891E-008	0.00000E+000	-2.10000E-001	4.30076E-004	7	...........	-327.63
	2896	57.94	-2.11194E-001	1.95974E-008	0.00000E+000	-2.08000E-001	4.24243E-004	7	...........	-327.63
	2897	57.96	-2.09092E-001	1.94766E-008	0.00000E+000	-2.06000E-001	4.25910E-004	7	...........	-327.63
	2898	57.98	-2.08197E-001	1.97808E-008	0.00000E+000	-2.04000E-001	4.14243E-004	7	...........	-327.63
	2899	58	-2.07523E-001	1.99516E-008	0.00000E+000	-2.02000E-001	4.40910E-004	7	...........	-327.63
	2900	58.02	-2.05378E-001	1.97850E-008	0.00000E+000	-2.00000E-001	4.19243E-004	7	...........	-327.63
	2901	58.04	-2.03482E-001	1.99475E-008	0.00000E+000	-1.98000E-001	4.22576E-004	7	...........	-327.63
	2902	58.06	-1.99642E-001	1.95974E-008	0.00000E+000	-1.96000E-001	4.20910E-004	7	...........	-327.63
	2903	58.08	-1.98227E-001	1.97433E-008	0.00000E+000	-1.94000E-001	4.20910E-004	7	...........	-327.63
	2904	58.1	-1.97506E-001	1.98891E-008	0.00000E+000	-1.92000E-001	4.15910E-004	7	...........	-327.63
	2905	58.12	-1.92254E-001	1.90849E-008	0.00000E+000	-1.90000E-001	4.04243E-004	7	..ch.......	-327.63
	2906	58.14	-1.90602E-001	1.91683E-008	0.00000E+000	-1.88000E-001	4.32576E-004	7	...........	-327.63
	2907	58.16	-1.87902E-001	1.90224E-008	0.00000E+000	-1.86000E-001	4.26743E-004	7	...........	-327.63
	2908	58.18	-1.85918E-001	1.91016E-008	0.00000E+000	-1.84000E-001	4.05076E-004	7	...........	-327.63
	2909	58.2	-1.84659E-001	1.92808E-008	0.00000E+000	-1.82000E-001	4.20076E-004	7	...........	-327.63
	2910	58.22	-1.83549E-001	1.93974E-008	0.00000E+000	-1.80000E-001	4.09243E-004	7	...........	-327.63
	2911	58.24	-1.80697E-001	1.91516E-008	0.00000E+000	-1.78000E-001	4.27576E-004	7	...........	-327.63
	2912	58.26	-1.78615E-001	1.92558E-008	0.00000E+000	-1.76000E-001	4.04243E-004	7	...........	-327.63
	2913	58.28	-1.75846E-001	1.91599E-008	0.00000E+000	-1.74000E-001	4.27576E-004	7	...........	-327.63
	2914	58.3	-1.75612E-001	1.94308E-008	0.00000E+000	-1.72000E-001	4.14243E-004	7	...........	-327.63
	2915	58.32	-1.73051E-001	1.91933E-008	0.00000E+000	-1.70000E-001	4.22576E-004	7	...........	-327.63
	2916	58.34	-1.70491E-001	1.90724E-008	0.00000E+000	-1.68000E-001	4.10910E-004	7	...........	-327.63
	2917	58.36	-1.68602E-001	1.91099E-008	0.00000E+000	-1.66000E-001	4.39243E-004	7	...........	-327.63
	2918	58.38	-1.66602E-001	1.89391E-008	0.00000E+000	-1.64000E-001	4.18410E-004	7	...........	-327.63
	2919	58.4	-1.65419E-001	1.90558E-008	0.00000E+000	-1.62000E-001	4.20910E-004	7	...........	-327.63
	2920	58.42	-1.64262E-001	1.90683E-008	0.00000E+000	-1.60000E-001	4.31743E-004	7	...........	-327.63
	2921	58.44	-1.63309E-001	1.93266E-008	0.00000E+000	-1.58000E-001	4.31743E-004	7	...........	-327.63
	2922	58.46	-1.57611E-001	1.85307E-008	0.00000E+000	-1.56000E-001	4.22576E-004	7	...........	-327.63
	2923	58.48	-1.57445E-001	1.88974E-008	0.00000E+000	-1.54000E-001	4.18410E-004	7	...........	-327.63
	2924	58.5	-1.54538E-001	1.86974E-008	0.00000E+000	-1.52000E-001	4.29243E-004	7	...........	-327.63
	2925	58.52	-1.52556E-001	1.85599E-008	0.00000E+000	-1.50000E-001	4.21743E-004	7	...........	-327.63
	2926	58.54	-1.49789E-001	1.82516E-008	0.00000E+000	-1.48000E-001	4.09243E-004	7	...........	-327.63
	2927	58.56	-1.50350E-001	1.88266E-008	0.00000E+000	-1.46000E-001	4.23410E-004	7	...........	-327.63
	2928	58.58	-1.46947E-001	1.85224E-008	0.00000E+000	-1.44000E-001	4.20076E-004	7	...........	-327.63
	2929	58.6	-1.45716E-001	1.86391E-008	0.00000E+000	-1.42000E-001	4.07576E-004	7	...........	-327.63
	2930	58.62	-1.45228E-001	1.88724E-008	0.00000E+000	-1.40000E-001	4.28410E-004	7	...........	-327.63
	2931	58.64	-1.43259E-001	1.86391E-008	0.00000E+000	-1.38000E-001	4.09243E-004	7	...........	-327.63
	2932	58.66	-1.41195E-001	1.86391E-008	0.00000E+000	-1.36000E-001	4.28410E-004	7	...........	-327.63
	2933	58.68	-1.39320E-001	1.86849E-008	0.00000E+000	-1.34000E-001	4.20910E-004	7	...........	-327.63
	2934	58.7	-1.36939E-001	1.86016E-008	0.00000E+000	-1.32000E-001	4.26743E-004	7	...........	-327.63
	2935	58.72	-1.34897E-001	1.85557E-008	0.00000E+000	-1.30000E-001	4.19243E-004	7	...........	-327.63
	2936	58.74	-1.30169E-001	1.79557E-008	0.00000E+000	-1.28000E-001	4.21743E-004	7	..ch.......	-327.63
	2937	58.76	-1.29349E-001	1.83057E-008	0.00000E+000	-1.26000E-001	4.07576E-004	7	...........	-327.63
	2938	58.78	-1.27614E-001	1.80516E-008	0.00000E+000	-1.24000E-001	4.15076E-004	7	...........	-327.63
	2939	58.8	-1.25346E-001	1.80141E-008	0.00000E+000	-1.22000E-001	4.09243E-004	7	...........	-327.63
	2940	58.82	-1.23492E-001	1.80641E-008	0.00000E+000	-1.20000E-001	4.15076E-004	7	...........	-327.63
	2941	58.84	-1.19312E-001	1.72557E-008	0.00000E+000	-1.18000E-001	4.12576E-004	7	..ch.......	-327.63
	2942	58.86	-1.18506E-001	1.75265E-008	0.00000E+000	-1.16000E-001	4.18410E-004	7	...........	-327.63
	2943	58.88	-1.17036E-001	1.75974E-008	0.00000E+000	-1.14000E-001	4.17576E-004	7	...........	-327.63
	2944	58.9	-1.16632E-001	1.76765E-008	0.00000E+000	-1.12000E-001	4.26743E-004	7	...........	-327.63
	2945	58.92	-1.14835E-001	1.78641E-008	0.00000E+000	-1.10000E-001	4.29243E-004	7	...........	-327.63
	2946	58.94	-1.12991E-001	1.78974E-008	0.00000E+000	-1.08000E-001	4.19243E-004	7	...........	-327.63
	2947	58.96	-1.09592E-001	1.73932E-008	0.00000E+000	-1.06000E-001	4.18410E-004	7	...........	-327.63
	2948	58.98	-1.08438E-001	1.75849E-008	0.00000E+000	-1.04000E-001	4.27576E-004	7	...........	-327.63
	2949	59	-1.04535E-001	1.73390E-008	0.00000E+000	-1.02000E-001	4.20910E-004	7	...........	-327.63
	2950	59.02	-1.02499E-001	1.70682E-008	0.00000E+000	-1.00000E-001	4.23410E-004	7	...........	-327.63
	2951	59.04	-1.01141E-001	1.73057E-008	0.00000E+000	-9.80000E-002	4.20076E-004	7	...........	-327.63
	2952	59.06	-9.76382E-002	1.70182E-008	0.00000E+000	-9.60000E-002	4.27576E-004	7	..ch.......	-327.63
	2953	59.08	-9.84853E-002	1.74724E-008	0.00000E+000	-9.40000E-002	4.14243E-004	7	...........	-327.63
	2954	59.1	-9.55053E-002	1.70849E-008	0.00000E+000	-9.20000E-002	4.15076E-004	7	...........	-327.63
	2955	59.12	-9.37212E-002	1.70724E-008	0.00000E+000	-9.00000E-002	4.10910E-004	7	...........	-327.63
	2956	59.14	-9.02495E-002	1.67973E-008	0.00000E+000	-8.80000E-002	4.41743E-004	7	...........	-327.63
	2957	59.16	-8.91578E-002	1.68682E-008	0.00000E+000	-8.60000E-002	4.35076E-004	7	...........	-327.63
	2958	59.18	-8.62153E-002	1.66140E-008	0.00000E+000	-8.40000E-002	4.20076E-004	7	...........	-327.63
	2959	59.2	-8.65632E-002	1.70015E-008	0.00000E+000	-8.20000E-002	4.31743E-004	7	...........	-327.63
	2960	59.22	-8.26620E-002	1.65348E-008	0.00000E+000	-8.00000E-002	4.10910E-004	7	...........	-327.63
	2961	59.24	-8.13007E-002	1.64348E-008	0.00000E+000	-7.80000E-002	4.15910E-004	7	...........	-327.63
	2962	59.26	-7.99616E-002	1.65348E-008	0.00000E+000	-7.60000E-002	4.15910E-004	7	...........	-327.63
	2963	59.28	-7.69991E-002	1.61473E-008	0.00000E+000	-7.40000E-002	4.07576E-004	7	...........	-327.63
	2964	59.3	-7.34699E-002	1.58140E-008	0.00000E+000	-7.20000E-002	4.17576E-004	7	...........	-327.63
	2965	59.32	-7.25341E-002	1.60140E-008	0.00000E+000	-7.00000E-002	4.11743E-004	7	...........	-327.63
	2966	59.34	-7.17512E-002	1.60265E-008	0.00000E+000	-6.80000E-002	4.25076E-004	7	...........	-327.63
	2967	59.36	-7.00628E-002	1.61098E-008	0.00000E+000	-6.60000E-002	4.12576E-004	7	...........	-327.63
	2968	59.38	-6.84782E-002	1.63307E-008	0.00000E+000	-6.40000E-002	4.15076E-004	7	...........	-327.63
	2969	59.4	-6.29916E-002	1.52723E-008	0.00000E+000	-6.20000E-002	4.34243E-004	7	..ch.......	-327.63
	2970	59.42	-6.08378E-002	1.52348E-008	0.00000E+000	-6.00000E-002	4.30076E-004	7	..ch.......	-327.63
	2971	59.44	-6.05132E-002	1.55223E-008	0.00000E+000	-5.80000E-002	4.30910E-004	7	...........	-327.63
	2972	59.46	-5.85524E-002	1.54931E-008	0.00000E+000	-5.60000E-002	4.30076E-004	7	...........	-327.63
	2973	59.48	-5.63607E-002	1.53848E-008	0.00000E+000	-5.40000E-002	4.28410E-004	7	...........	-327.63
	2974	59.5	-5.68591E-002	1.61098E-008	0.00000E+000	-5.20000E-002	4.12576E-004	7	...........	-327.63
	2975	59.52	-5.40787E-002	1.58265E-008	0.00000E+000	-5.00000E-002	4.33410E-004	7	...........	-327.63
	2976	59.54	-5.04487E-002	1.52431E-008	0.00000E+000	-4.80000E-002	4.41743E-004	7	...........	-327.63
	2977	59.56	-4.88074E-002	1.51931E-008	0.00000E+000	-4.60000E-002	4.33410E-004	7	..ch.......	-327.63
	2978	59.58	-4.49849E-002	1.48639E-008	0.00000E+000	-4.40000E-002	4.28410E-004	7	..ch.......	-327.63
	2979	59.6	-4.44353E-002	1.49306E-008	0.00000E+000	-4.20000E-002	4.30076E-004	7	...........	-327.63
	2980	59.62	-4.44520E-002	1.51973E-008	0.00000E+000	-4.00000E-002	4.08410E-004	7	...........	-327.63
	2981	59.64	-4.27982E-002	1.53306E-008	0.00000E+000	-3.80000E-002	4.16743E-004	7	...........	-327.63
	2982	59.66	-3.79774E-002	1.46014E-008	0.00000E+000	-3.60000E-002	4.30076E-004	7	...........	-327.63
	2983	59.68	-3.64116E-002	1.47389E-008	0.00000E+000	-3.40000E-002	4.36743E-004	7	...........	-327.63
	2984	59.7	-3.44237E-002	1.46764E-008	0.00000E+000	-3.20000E-002	4.35076E-004	7	...........	-327.63
	2985	59.72	-3.23978E-002	1.44973E-008	0.00000E+000	-3.00000E-002	4.05076E-004	7	...........	-327.63
	2986	59.74	-3.03728E-002	1.44098E-008	0.00000E+000	-2.80000E-002	4.14243E-004	7	...........	-327.63
	2987	59.76	-2.80574E-002	1.40472E-008	0.00000E+000	-2.60000E-002	4.29243E-004	7	...........	-327.63
	2988	59.78	-2.60357E-002	1.38847E-008	0.00000E+000	-2.40000E-002	4.10910E-004	7	...........	-327.63
	2989	59.8	-2.43724E-002	1.41764E-008	0.00000E+000	-2.20000E-002	4.12576E-004	7	...........	-327.63
	2990	59.82	-2.41632E-002	1.46348E-008	0.00000E+000	-2.00000E-002	4.06743E-004	7	...........	-327.63
	2991	59.84	-2.03570E-002	1.39681E-008	0.00000E+000	-1.80000E-002	4.24243E-004	7	...........	-327.63
	2992	59.86	-1.83528E-002	1.38931E-008	0.00000E+000	-1.60000E-002	4.38410E-004	7	...........	-327.63
	2993	59.88	-1.72187E-002	1.40972E-008	0.00000E+000	-1.40000E-002	4.21743E-004	7	...........	-327.63
	2994	59.9	-1.23757E-002	1.32014E-008	0.00000E+000	-1.20000E-002	4.23410E-004	7	..ch.......	-327.63
	2995	59.92	-1.12274E-002	1.33931E-008	0.00000E+000	-1.00000E-002	4.23410E-004	7	...........	-327.63
	2996	59.94	-1.11503E-002	1.39139E-008	0.00000E+000	-8.00000E-003	4.29243E-004	7	...........	-327.63
	2997	59.96	-8.34908E-003	1.37097E-008	0.00000E+000	-6.00000E-003	4.32576E-004	7	...........	-327.63
	2998	59.98	-4.32199E-003	1.33305E-008	0.00000E+000	-4.00000E-003	4.22576E-004	7	..ch.......	-327.63
	2999	60	-4.32574E-003	1.35139E-008	0.00000E+000	-2.00000E-003	4.18410E-004	7	...........	-327.63
	3000	60.02	-2.38491E-003	1.33931E-008	0.00000E+000	0.00000E+000	4.45910E-004	7	...........	-327.63